timestamp (sec),accel_x (m/s^2),accel_y (m/s^2),accel_z (m/s^2),gyro_x (rad/s),gyro_y (rad/s),gyro_z (rad/s),mag_x (uT),mag_y (uT),mag_z (uT),pose_w,pose_x,pose_y,pose_z
1917683.993760284,-0.04307080679999999,-0.0693918554,9.954142016,-0.0015271630954950383,-0.004276056667386108,0.006108652381980153,,,,0.9999999992796496,-1.5027684912573627e-05,-1.6792226427364408e-05,3.0543261887898915e-05
1917683.998169037,-0.040677984199999996,-0.071784678,9.9589276612,-0.0015271630954950383,-0.004581489286485115,0.006719517620178169,,,,0.9999999984234534,-2.1721086209492982e-05,-2.49827981790914e-05,4.5355788429984327e-05
1917684.008317785,-0.044267218100000005,-0.071784678,9.9565348386,-0.0015271630954950383,-0.0039706240482871,0.0079412480965742,,,,0.9999999948314668,-3.695011268729288e-05,-4.0438688906170995e-05,8.565318418570087e-05
1917684.016454819,-0.044267218100000005,-0.071784678,9.9565348386,-0.000916297857297023,-0.004581489286485115,0.007635815477475192,,,,0.9999999905715006,-4.665588250807118e-05,-5.5285995333686236e-05,0.00011672054804851535
1917684.019024055,-0.040677984199999996,-0.0789631458,9.9469635482,-0.000916297857297023,-0.004581489286485115,0.007635815477475192,,,,0.9999999889478912,-4.980354904556814e-05,-6.011636581608702e-05,0.00012653002198894392
1917684.02700038,-0.044267218100000005,-0.071784678,9.9445707256,-0.000916297857297023,-0.004276056667386108,0.007330382858376184,,,,0.9999999834151702,-5.929703138700167e-05,-7.341996675028965e-05,0.00015576594698836206
1917684.035712666,-0.044267218100000005,-0.071784678,9.9445707256,-0.000916297857297023,-0.004886921905584123,0.0070249502392771765,,,,0.9999999761046166,-6.965009661335379e-05,-9.058757464537763e-05,0.00018636931527725082
1917684.038279502,-0.044267218100000005,-0.0825523797,9.9481599595,-0.0015271630954950383,-0.004886921905584123,0.0070249502392771765,,,,0.9999999736225161,-7.355205457516098e-05,-9.57573073144499e-05,0.00019538577407194932
1917684.046625023,-0.0490528633,-0.0789631458,9.937392257800001,-0.0015271630954950383,-0.004886921905584123,0.007635815477475192,,,,0.9999999641914933,-8.599115839584014e-05,-0.00011216053473892837,0.0002272499664402983
1917684.055539907,-0.0538385085,-0.0753739119,9.954142016,-0.000916297857297023,-0.004581489286485115,0.0070249502392771765,,,,0.9999999537629815,-9.624686795455633e-05,-0.0001278842102893197,0.0002585656673380375
1917684.065364004,-0.0681954441,-0.0849452023,9.945767136899999,-0.0015271630954950383,-0.004581489286485115,0.005803219762881146,,,,0.9999999422260618,-0.00011025357912925871,-0.0001448467361565602,0.0002870739354214353
1917684.076220456,-0.051445685899999996,-0.08614161359999999,9.950552782099999,-0.001832595714594046,-0.004581489286485115,0.006414085001079161,,,,0.9999999264392152,-0.00012813013447430613,-0.0001645857005244599,0.00032189405114549786
1917684.084454421,-0.051445685899999996,-0.08614161359999999,9.950552782099999,-0.0015271630954950383,-0.004276056667386108,0.0070249502392771765,,,,0.9999999127160234,-0.00014041133459938927,-0.00017826689035038676,0.00035081835563518485
1917684.087265457,-0.0550349198,-0.0753739119,9.950552782099999,-0.0015271630954950383,-0.004276056667386108,0.0070249502392771765,,,,0.9999999078186299,-0.00014446101782218014,-0.00018274096072264874,0.00036069306518602616
1917684.094465245,-0.0550349198,-0.0753739119,9.950552782099999,-0.0015271630954950383,-0.004276056667386108,0.006414085001079161,,,,0.9999998955127017,-0.00015482783884445471,-0.0001941942608980981,0.0003837857671592728
1917684.097019089,-0.0550349198,-0.08853443620000001,9.9529456047,-0.0015271630954950383,-0.004276056667386108,0.006414085001079161,,,,0.9999998909188234,-0.00015860725960203568,-0.0001983936887193688,0.00039197706933959137
1917684.105012438,-0.0502492746,-0.0693918554,9.950552782099999,-0.0015271630954950383,-0.004276056667386108,0.007330382858376184,,,,0.9999998745193852,-0.00017009373874574162,-0.00021107963705564817,0.0004212774865042477
1917684.113881081,-0.035892339,-0.0753739119,9.945767136899999,-0.0015271630954950383,-0.004581489286485115,0.007635815477475192,,,,0.9999998536571871,-0.00018360677633360293,-0.00022764142134767734,0.0004551412301944887
1917684.123642328,-0.0263210486,-0.0693918554,9.950552782099999,-0.001832595714594046,-0.004886921905584123,0.007635815477475192,,,,0.9999998279931993,-0.0002002380477077998,-0.0002478855023296277,0.0004924135192090682
1917684.134077678,-0.0394815729,-0.0873380249,9.955338427300001,-0.0015271630954950383,-0.004886921905584123,0.0070249502392771765,,,,0.9999998004543408,-0.0002162170787750286,-0.0002691148474766909,0.0005290733906027152
1917684.143937009,-0.0490528633,-0.0849452023,9.955338427300001,-0.0012217304763960308,-0.004276056667386108,0.006719517620178169,,,,0.9999997749367542,-0.00022935051902456157,-0.0002853965085702104,0.0005622042451144676
1917684.152763505,-0.0394815729,-0.10289137179999999,9.954142016,-0.0015271630954950383,-0.004581489286485115,0.006719517620178169,,,,0.999999749580912,-0.0002430673244629843,-0.00030241149658994727,0.0005918645756343985
1917684.16248792,-0.0466600407,-0.0825523797,9.9577312499,-0.0012217304763960308,-0.0039706240482871,0.006108652381980153,,,,0.9999997238179787,-0.00025601075563938666,-0.00031697061683371775,0.0006215722704873722
1917684.172894789,-0.0490528633,-0.08135596839999999,9.9493563708,-0.0015271630954950383,-0.0039706240482871,0.006414085001079161,,,,0.9999996935035632,-0.00027128527729753337,-0.00033231363769651163,0.000654953986388935
1917684.18259037,-0.0550349198,-0.0801595571,9.9529456047,-0.0015271630954950383,-0.004276056667386108,0.006719517620178169,,,,0.9999996625390926,-0.0002851971901781481,-0.00034767671932370433,0.0006875355719952452
1917684.191148346,-0.0550349198,-0.0801595571,9.9529456047,-0.0012217304763960308,-0.004276056667386108,0.0070249502392771765,,,,0.9999996334342953,-0.0002961501113478063,-0.0003612115358766552,0.0007176019879475073
1917684.19365566,-0.056231331100000004,-0.0849452023,9.964909717700001,-0.0012217304763960308,-0.004276056667386108,0.0070249502392771765,,,,0.9999996246603566,-0.0002993833563439241,-0.0003652067002203089,0.0007264109153724192
1917684.201561423,-0.059820565,-0.08135596839999999,9.9517491934,-0.001832595714594046,-0.0039706240482871,0.006414085001079161,,,,0.9999995980086784,-0.00031176688368316657,-0.0003763313347790595,0.0007517703227461101
1917684.211995173,-0.0502492746,-0.08135596839999999,9.950552782099999,-0.002138028333693054,-0.004276056667386108,0.006719517620178169,,,,0.9999995586895344,-0.0003301194780500033,-0.0003931115242126534,0.000786832381462942
1917684.221738179,-0.0610169763,-0.0789631458,9.9565348386,-0.0015271630954950383,-0.004276056667386108,0.007330382858376184,,,,0.9999995193663663,-0.00034370348175348183,-0.00040809973490287633,0.0008225506424521095
1917684.231122743,-0.0646062102,-0.0658026215,9.9493563708,-0.000916297857297023,-0.004581489286485115,0.006719517620178169,,,,0.9999994833377213,-0.0003531451280629526,-0.00042325214295990844,0.000854090412460914
1917684.240913527,-0.0490528633,-0.0741775006,9.9385886691,-0.0006108652381980154,-0.0039706240482871,0.006719517620178169,,,,0.9999994453272524,-0.00036260959249424796,-0.00043714837336480765,0.0008869953613395981
1917684.249762937,-0.0382851616,-0.0693918554,9.9493563708,-0.0015271630954950383,-0.004581489286485115,0.006414085001079161,,,,0.999999408027582,-0.00037550787898526757,-0.00045277969964850634,0.0009153845433088995
1917684.259430709,-0.041874395499999995,-0.08135596839999999,9.9601240725,-0.0015271630954950383,-0.004276056667386108,0.0070249502392771765,,,,0.9999993635570162,-0.0003898172921352797,-0.0004686783900879895,0.0009493516777657193
1917684.269829802,-0.04307080679999999,-0.0825523797,9.9589276612,-0.0012217304763960308,-0.004276056667386108,0.006719517620178169,,,,0.9999993161753931,-0.00040357921598073356,-0.000485719615562283,0.0009843012840268315
1917684.279449445,-0.0346959277,-0.0921236701,9.950552782099999,-0.001832595714594046,-0.004581489286485115,0.006108652381980153,,,,0.999999271165632,-0.00041979239840547543,-0.0005038550554396322,0.0010136925717963694
1917684.288112128,-0.0346959277,-0.0921236701,9.950552782099999,-0.001832595714594046,-0.004276056667386108,0.006414085001079161,,,,0.9999992287224706,-0.00043437726514222085,-0.0005188299559169624,0.0010414827566541096
1917684.290619954,-0.0394815729,-0.0921236701,9.955338427300001,-0.0012217304763960308,-0.004276056667386108,0.006414085001079161,,,,0.9999992166148077,-0.0004377825691520318,-0.0005230738311541813,0.00104952844666801
1917684.298603672,-0.0370887503,-0.0873380249,9.9625168951,-0.0015271630954950383,-0.004886921905584123,0.006108652381980153,,,,0.9999991769194363,-0.000449819483167566,-0.000538991229916281,0.0010739233383152546
1917684.308941322,-0.0394815729,-0.0825523797,9.9565348386,-0.0015271630954950383,-0.004886921905584123,0.006414085001079161,,,,0.9999991226554514,-0.0004651385680114191,-0.0005591835202440041,0.0011070899831766472
1917684.318562661,-0.0299102825,-0.0921236701,9.954142016,-0.0015271630954950383,-0.003665191429188092,0.006719517620178169,,,,0.9999990714368604,-0.00047998894501555256,-0.0005731020085289688,0.001139425345342218
1917684.327162495,-0.0299102825,-0.0921236701,9.954142016,-0.000916297857297023,-0.004581489286485115,0.007330382858376184,,,,0.9999990203483257,-0.0004906193268419417,-0.0005894509745875122,0.0011709579896671803
1917684.329683377,-0.0466600407,-0.08374879099999999,9.950552782099999,-0.000916297857297023,-0.004581489286485115,0.007330382858376184,,,,0.9999990054544126,-0.0004934961323831215,-0.000593865790388003,0.0011802013287067353
1917684.338268458,-0.0466600407,-0.08135596839999999,9.9577312499,-0.0012217304763960308,-0.00519235452468313,0.007330382858376184,,,,0.9999989517241712,-0.0005045205290428325,-0.0006114237146373204,0.0012116809134435067
1917684.347774497,-0.0586241537,-0.0777667345,9.9565348386,-0.0012217304763960308,-0.00519235452468313,0.007635815477475192,,,,0.9999988895832224,-0.0005160433578656969,-0.0006301221023191625,0.0012479894676072328
1917684.356703014,-0.0550349198,-0.071784678,9.9565348386,-0.0012217304763960308,-0.004581489286485115,0.0070249502392771765,,,,0.9999988349913528,-0.0005267271369745717,-0.000644827265232968,0.0012793640054160678
1917684.365821168,-0.0550349198,-0.071784678,9.9565348386,-0.0015271630954950383,-0.004886921905584123,0.007330382858376184,,,,0.9999987744121258,-0.0005390066717321136,-0.0006612176025209514,0.0013127975229789595
1917684.36843975,-0.0646062102,-0.0897308475,9.945767136899999,-0.0015271630954950383,-0.004886921905584123,0.007330382858376184,,,,0.9999987566161535,-0.0005426298858240245,-0.0006660175445460526,0.001322399177494762
1917684.376472749,-0.06340979890000001,-0.0933200814,9.9673025403,-0.0015271630954950383,-0.004886921905584123,0.005803219762881146,,,,0.9999987093213182,-0.000553878426028126,-0.0006808899814739073,0.0013457203350123637
1917684.385357136,-0.06340979890000001,-0.0933200814,9.9673025403,-0.0015271630954950383,-0.004276056667386108,0.006719517620178169,,,,0.9999986522955792,-0.0005663082954656881,-0.0006946042761030633,0.0013755823637466094
1917684.387868962,-0.047856452,-0.0777667345,9.9589276612,-0.0015271630954950383,-0.004276056667386108,0.006719517620178169,,,,0.9999986359409584,-0.000569828692497449,-0.0006984882813217028,0.0013840251460375055
1917684.395931274,-0.0466600407,-0.0789631458,9.9589276612,-0.0012217304763960308,-0.0039706240482871,0.007330382858376184,,,,0.9999985807787258,-0.0005799829218063831,-0.0007098113015846333,0.0014135870191458143
1917684.404694793,-0.0466600407,-0.0789631458,9.9589276612,-0.0015271630954950383,-0.004581489286485115,0.006719517620178169,,,,0.9999985207265125,-0.0005923359572619618,-0.0007247802757382142,0.0014430441616191296
1917684.407191707,-0.044267218100000005,-0.09092725880000001,9.9517491934,-0.0015271630954950383,-0.004581489286485115,0.006719517620178169,,,,0.9999985031926509,-0.0005959870754464574,-0.0007292063319567412,0.001451437214975532
1917684.415172992,-0.040677984199999996,-0.071784678,9.9577312499,-0.0015271630954950383,-0.003665191429188092,0.005803219762881146,,,,0.9999984552696046,-0.00060719058216039,-0.000739130233855727,0.0014746065573325695
1917684.423987456,-0.040677984199999996,-0.071784678,9.9577312499,-0.0015271630954950383,-0.0039706240482871,0.006414085001079161,,,,0.9999983964334138,-0.0006195447115537106,-0.0007514140473159056,0.0015028878471164589
1917684.426516883,-0.0323031051,-0.0849452023,9.9601240725,-0.0015271630954950383,-0.0039706240482871,0.006414085001079161,,,,0.9999983789778834,-0.0006233206896132029,-0.0007552357477735332,0.001511003603243274
1917684.434631389,-0.04307080679999999,-0.08374879099999999,9.9517491934,-0.0015271630954950383,-0.004886921905584123,0.006108652381980153,,,,0.9999983221323689,-0.0006349861892830205,-0.0007706073313321582,0.001535802502698907
1917684.443653764,-0.04307080679999999,-0.08374879099999999,9.9517491934,-0.002138028333693054,-0.004276056667386108,0.006719517620178169,,,,0.9999982538659786,-0.0006506982307139391,-0.000784920094405812,0.0015661281083879878
1917684.446266682,-0.047856452,-0.09092725880000001,9.9481599595,-0.002138028333693054,-0.004276056667386108,0.006719517620178169,,,,0.999998233829139,-0.0006552548908877106,-0.0007890729670059427,0.0015749106271436832
1917684.454317153,-0.0502492746,-0.0801595571,9.9445707256,-0.0015271630954950383,-0.004276056667386108,0.0070249502392771765,,,,0.9999981717244065,-0.000666401231778317,-0.0008013757009876655,0.0016032012439896272
1917684.462851609,-0.0502492746,-0.0801595571,9.9445707256,-0.0012217304763960308,-0.004886921905584123,0.006108652381980153,,,,0.9999981098731958,-0.0006768887622521896,-0.000817006698154291,0.0016292856393932827
1917684.465366123,-0.051445685899999996,-0.0789631458,9.954142016,-0.0012217304763960308,-0.004886921905584123,0.006108652381980153,,,,0.9999980915037495,-0.000679944401361969,-0.0008215780384715638,0.0016369709821877183
1917684.473377681,-0.0658026215,-0.071784678,9.9589276612,-0.0012217304763960308,-0.004581489286485115,0.0070249502392771765,,,,0.9999980284251078,-0.0006888709114885851,-0.0008342391413111058,0.0016651269681192996
1917684.483774758,-0.0526420972,-0.0729810893,9.950552782099999,-0.0015271630954950383,-0.004886921905584123,0.006108652381980153,,,,0.999997949761707,-0.0007026871670405386,-0.0008527729275041001,0.0016969034923017686
1917684.493604455,-0.0669990328,-0.0753739119,9.9481599595,-0.0012217304763960308,-0.004276056667386108,0.007330382858376184,,,,0.9999978679843663,-0.0007137454339578699,-0.0008668786845100333,0.0017329499484612855
1917684.502208577,-0.0502492746,-0.08135596839999999,9.9613204838,-0.000916297857297023,-0.004276056667386108,0.007330382858376184,,,,0.9999977947537406,-0.0007229698390705716,-0.0008799596068164277,0.0017645037143562013
1917684.511962848,-0.0538385085,-0.0897308475,9.9625168951,-0.001832595714594046,-0.004886921905584123,0.0070249502392771765,,,,0.9999977066493414,-0.0007380660154745922,-0.0008979586434848212,0.0017987842808703507
1917684.522603069,-0.04307080679999999,-0.0873380249,9.9601240725,-0.001832595714594046,-0.004886921905584123,0.006414085001079161,,,,0.9999976138721975,-0.0007549009321223091,-0.0009180117889768528,0.0018329290356080918
1917684.532556931,-0.0370887503,-0.0921236701,9.9433743143,-0.0015271630954950383,-0.004886921905584123,0.0070249502392771765,,,,0.9999975201044186,-0.0007695337395256941,-0.0009372847817630908,0.0018679132942482268
1917684.541118491,-0.0466600407,-0.0801595571,9.954142016,-0.0015271630954950383,-0.004276056667386108,0.006414085001079161,,,,0.9999974469808824,-0.0007813197687742254,-0.0009503039049254538,0.0018953874602742912
1917684.551165508,-0.045463629400000004,-0.08853443620000001,9.964909717700001,-0.001832595714594046,-0.004581489286485115,0.0070249502392771765,,,,0.999997350468743,-0.0007970797600282287,-0.0009675368138650867,0.001930697248132616
1917684.559881825,-0.045463629400000004,-0.08853443620000001,9.964909717700001,-0.001832595714594046,-0.004581489286485115,0.007635815477475192,,,,0.9999972601079675,-0.0008107309349110616,-0.0009824579583670428,0.001963992940247189
1917684.562534936,-0.0370887503,-0.0765703232,9.9601240725,-0.0015271630954950383,-0.004886921905584123,0.007635815477475192,,,,0.9999972323070397,-0.0008144407592614125,-0.0009873608204184932,0.001974128445795688
1917684.570752869,-0.035892339,-0.071784678,9.945767136899999,-0.001832595714594046,-0.004276056667386108,0.006719517620178169,,,,0.9999971546152328,-0.0008270309284291618,-0.000999879837265174,0.0020017546285211268
1917684.580833871,-0.045463629400000004,-0.0693918554,9.9409814917,-0.0012217304763960308,-0.0039706240482871,0.0070249502392771765,,,,0.9999970600504973,-0.0008387188271350663,-0.001013073008598511,0.002037185354995547
1917684.59068773,-0.044267218100000005,-0.0789631458,9.9613204838,-0.0015271630954950383,-0.004581489286485115,0.006719517620178169,,,,0.9999969638599867,-0.0008521986573306739,-0.0010294788414448783,0.002070314365498231
1917684.599194408,-0.0490528633,-0.0765703232,9.9684989516,-0.0012217304763960308,-0.00519235452468313,0.0070249502392771765,,,,0.9999968758487293,-0.0008622048487672302,-0.0010459369791752525,0.0021002169924723185
1917684.608899686,-0.0658026215,-0.08374879099999999,9.9517491934,-0.000916297857297023,-0.004886921905584123,0.006414085001079161,,,,0.9999967836846363,-0.0008717933673470705,-0.0010629499015324707,0.002131369093881626
1917684.619212471,-0.045463629400000004,-0.0825523797,9.9493563708,-0.0012217304763960308,-0.004886921905584123,0.006414085001079161,,,,0.9999966814047593,-0.0008843637479675453,-0.0010817345206179084,0.0021644700637023615
1917684.629136572,-0.056231331100000004,-0.09092725880000001,9.9589276612,-0.0012217304763960308,-0.004276056667386108,0.006719517620178169,,,,0.9999965816902661,-0.0008963514341157498,-0.0010966657073202748,0.002197836712759899
1917684.637778679,-0.056231331100000004,-0.09092725880000001,9.9589276612,-0.001832595714594046,-0.004276056667386108,0.006719517620178169,,,,0.9999964912915105,-0.0009094107811388276,-0.0011096556405393986,0.002226890446017549
1917684.640327051,-0.045463629400000004,-0.09092725880000001,9.966106129,-0.001832595714594046,-0.004276056667386108,0.006719517620178169,,,,0.9999964641853606,-0.0009133713796142566,-0.001113596698388684,0.0022354578710410008
1917684.648537495,-0.051445685899999996,-0.08135596839999999,9.9625168951,-0.0012217304763960308,-0.004276056667386108,0.006414085001079161,,,,0.9999963824723158,-0.0009230388431443579,-0.0011257259348981358,0.0022618096063685253
1917684.657199155,-0.051445685899999996,-0.08135596839999999,9.9625168951,-0.0015271630954950383,-0.004581489286485115,0.0070249502392771765,,,,0.9999962864858724,-0.0009345424472202109,-0.0011398296956012326,0.002292255034813758
1917684.659692933,-0.044267218100000005,-0.08135596839999999,9.9445707256,-0.0015271630954950383,-0.004581489286485115,0.0070249502392771765,,,,0.9999962584663658,-0.0009379310608275653,-0.0011439591090687338,0.0023010206760334002
1917684.667734412,-0.044267218100000005,-0.0765703232,9.9529456047,-0.001832595714594046,-0.0039706240482871,0.006414085001079161,,,,0.9999961752112657,-0.0009498765777803962,-0.00115463191841171,0.0023268266931064487
1917684.677943546,-0.047856452,-0.08853443620000001,9.9673025403,-0.001832595714594046,-0.004581489286485115,0.006414085001079161,,,,0.9999960636816184,-0.0009654520353593433,-0.001171685849981069,0.0023595923175650257
1917684.687845214,-0.0334995164,-0.0825523797,9.963713306399999,-0.0012217304763960308,-0.00519235452468313,0.006414085001079161,,,,0.99999595250522,-0.0009779003010912833,-0.001191635492696677,0.002391378061168427
1917684.696419767,-0.040677984199999996,-0.0729810893,9.9577312499,-0.0012217304763960308,-0.0039706240482871,0.006108652381980153,,,,0.9999958661357625,-0.0009879082142746581,-0.0012029179030756234,0.002417589143089709
1917684.70618191,-0.035892339,-0.08135596839999999,9.9517491934,-0.0012217304763960308,-0.0039706240482871,0.006414085001079161,,,,0.9999957616147785,-0.0009999728270899404,-0.0012163835650214846,0.0024489217723262942
1917684.71674952,-0.0346959277,-0.0741775006,9.9529456047,-0.0012217304763960308,-0.0039706240482871,0.007330382858376184,,,,0.9999956357818797,-0.0010126690060441323,-0.0012305933335579084,0.0024876813956003652
1917684.726650485,-0.0466600407,-0.0777667345,9.9673025403,-0.0012217304763960308,-0.004581489286485115,0.007330382858376184,,,,0.9999955133100745,-0.0010241377314896597,-0.0012465672459887234,0.0025239991538845118
1917684.735112202,-0.040677984199999996,-0.0681954441,9.954142016,-0.0012217304763960308,-0.004581489286485115,0.007330382858376184,,,,0.9999954078694226,-0.001033650180957409,-0.0012599958250917667,0.0025550377475434074
1917684.745026222,-0.0526420972,-0.0753739119,9.955338427300001,-0.0012217304763960308,-0.004581489286485115,0.006108652381980153,,,,0.9999952986632517,-0.0010446722575524383,-0.0012756522645885765,0.002585347668796291
1917684.755307839,-0.04307080679999999,-0.08374879099999999,9.9601240725,-0.0015271630954950383,-0.004581489286485115,0.006108652381980153,,,,0.9999951804980245,-0.0010585712913083114,-0.0012926210886646569,0.00261678013327655
1917684.765216131,-0.051445685899999996,-0.0825523797,9.9565348386,-0.0015271630954950383,-0.004276056667386108,0.006719517620178169,,,,0.9999950602119171,-0.00107151132277828,-0.0013070598583330888,0.0026500961824565124
1917684.773692025,-0.051445685899999996,-0.0825523797,9.9589276612,-0.001832595714594046,-0.004581489286485115,0.006719517620178169,,,,0.9999949530728591,-0.001083848905501333,-0.00132069098418793,0.0026785958419684648
1917684.776161321,-0.06340979890000001,-0.0849452023,9.9589276612,-0.001832595714594046,-0.004581489286485115,0.006719517620178169,,,,0.9999949218357294,-0.001087350878281749,-0.0013245927918064378,0.0026868987247351366
1917684.784497242,-0.047856452,-0.0789631458,9.9589276612,-0.001832595714594046,-0.003665191429188092,0.006414085001079161,,,,0.9999948237118697,-0.0010994289362416564,-0.001334130611717497,0.0027136508603538855
1917684.792980144,-0.047856452,-0.0789631458,9.9589276612,-0.0015271630954950383,-0.0039706240482871,0.007330382858376184,,,,0.9999947119583082,-0.001110407042748159,-0.0013451095074328576,0.0027447644767155848
1917684.795462337,-0.0526420972,-0.0849452023,9.9529456047,-0.0015271630954950383,-0.0039706240482871,0.007330382858376184,,,,0.9999946789725415,-0.0011136454188339323,-0.0013483424596737045,0.002753868750769057
1917684.803882965,-0.0586241537,-0.08135596839999999,9.9529456047,-0.001832595714594046,-0.004276056667386108,0.006719517620178169,,,,0.999994571061916,-0.0011255357851820617,-0.0013603234613025858,0.0027821818724698714
1917684.812376075,-0.0586241537,-0.08135596839999999,9.9529456047,-0.0015271630954950383,-0.004581489286485115,0.006719517620178169,,,,0.999994460855174,-0.0011362085388785157,-0.0013736876033529917,0.0028107421608314855
1917684.814902814,-0.0334995164,-0.0729810893,9.9565348386,-0.0015271630954950383,-0.004581489286485115,0.006719517620178169,,,,0.9999944275142966,-0.0011395390858161712,-0.001377781466580467,0.0028192391272753325
1917684.823081641,-0.0382851616,-0.0825523797,9.955338427300001,-0.0015271630954950383,-0.0039706240482871,0.007330382858376184,,,,0.9999943146606174,-0.0011505854617895684,-0.0013887548051765702,0.0028492384295607837
1917684.833352538,-0.040677984199999996,-0.0801595571,9.9517491934,-0.000916297857297023,-0.004276056667386108,0.006719517620178169,,,,0.9999941824838072,-0.0011610342247628548,-0.0014038545925910936,0.00288378056618365
1917684.841639913,-0.040677984199999996,-0.0801595571,9.9517491934,-0.0012217304763960308,-0.004581489286485115,0.0070249502392771765,,,,0.9999940678086863,-0.001170706985032641,-0.0014172877362728573,0.0029129174489625114
1917684.84485413,-0.0287138712,-0.0753739119,9.9673025403,-0.0012217304763960308,-0.004581489286485115,0.0070249502392771765,,,,0.9999940227925591,-0.001174556546306398,-0.0014225836240626113,0.0029242181701885643
1917684.85271746,-0.0370887503,-0.0681954441,9.963713306399999,-0.0012217304763960308,-0.004581489286485115,0.006719517620178169,,,,0.9999939172335769,-0.0011832232775187375,-0.0014349439630917825,0.0029506633736653054
1917684.862682426,-0.04307080679999999,-0.0801595571,9.9601240725,-0.0012217304763960308,-0.004276056667386108,0.0070249502392771765,,,,0.9999937787124351,-0.0011946893422832138,-0.0014494366421425682,0.002985697108116657
1917684.871515067,-0.0502492746,-0.08135596839999999,9.954142016,-0.0012217304763960308,-0.004886921905584123,0.0070249502392771765,,,,0.9999936512292339,-0.0012046039924913281,-0.0014647968937519188,0.003016753305595865
1917684.881483905,-0.0526420972,-0.0681954441,9.9529456047,-0.0012217304763960308,-0.005497787143782138,0.006719517620178169,,,,0.9999935080269923,-0.0012148035744356453,-0.0014845590259993794,0.0030502853380823002
1917684.890066842,-0.0526420972,-0.0681954441,9.9529456047,-0.0015271630954950383,-0.004886921905584123,0.007635815477475192,,,,0.9999933737006035,-0.0012248838914534303,-0.0014989374881911655,0.0030830829933838977
1917684.892538891,-0.041874395499999995,-0.0849452023,9.9481599595,-0.0015271630954950383,-0.004886921905584123,0.007635815477475192,,,,0.9999933339145461,-0.001228159668080574,-0.0015033331813611834,0.0030925296517060204
1917684.901196999,-0.045463629400000004,-0.0789631458,9.9601240725,-0.0012217304763960308,-0.004276056667386108,0.0079412480965742,,,,0.9999931962356287,-0.0012378719390138046,-0.0015157255546956246,0.003126936449142838
1917684.910197485,-0.045463629400000004,-0.0849452023,9.9409814917,-0.0012217304763960308,-0.004276056667386108,0.007330382858376184,,,,0.9999930595646833,-0.0012482617434245553,-0.0015288388199831422,0.0031599552126823464
1917684.920272983,-0.056231331100000004,-0.0825523797,9.963713306399999,-0.0012217304763960308,-0.004276056667386108,0.007330382858376184,,,,0.9999929064084659,-0.001259280641849365,-0.0015430692493392547,0.003196917625776332
1917684.928829199,-0.056231331100000004,-0.0825523797,9.963713306399999,-0.0012217304763960308,-0.004886921905584123,0.006719517620178169,,,,0.999992779431205,-0.0012686053548325992,-0.0015577569807589727,0.003225696683818556
1917684.931332225,-0.0538385085,-0.0777667345,9.9625168951,-0.0012217304763960308,-0.004886921905584123,0.006719517620178169,,,,0.9999927421965068,-0.0012712782812678662,-0.0015620183871614371,0.0032341157061150498
1917684.93985244,-0.0502492746,-0.08135596839999999,9.9565348386,-0.001832595714594046,-0.00519235452468313,0.006414085001079161,,,,0.9999926128760028,-0.001283278949325505,-0.0015780364016054179,0.0032614704779078715
1917684.949545269,-0.047856452,-0.0753739119,9.9589276612,-0.0024434609527920616,-0.004886921905584123,0.006414085001079161,,,,0.9999924635792943,-0.0012995988425038324,-0.0015945911957525715,0.003292583541970475
1917684.959704034,-0.035892339,-0.0693918554,9.9589276612,-0.0015271630954950383,-0.004581489286485115,0.006414085001079161,,,,0.9999923139195376,-0.0013121322154560603,-0.0016104249889221094,0.003325198077288901
1917684.968413279,-0.035892339,-0.0765703232,9.9577312499,-0.0012217304763960308,-0.004276056667386108,0.006414085001079161,,,,0.9999921873363076,-0.0013219687040661792,-0.0016229552107193542,0.003353159924118497
1917684.978428615,-0.0466600407,-0.0921236701,9.9589276612,-0.0015271630954950383,-0.0039706240482871,0.006719517620178169,,,,0.9999920347617344,-0.0013352014915842027,-0.0016361421139441214,0.0033868405699404944
1917684.988758777,-0.041874395499999995,-0.08614161359999999,9.955338427300001,-0.0015271630954950383,-0.0039706240482871,0.007635815477475192,,,,0.9999918600044916,-0.001348720004109009,-0.0016496238672767268,0.0034263129168933316
1917684.997151468,-0.041874395499999995,-0.08614161359999999,9.955338427300001,-0.002138028333693054,-0.0039706240482871,0.0070249502392771765,,,,0.99999172204156,-0.0013622395755449438,-0.0016605711479596584,0.003455814687885606
1917685.000479641,-0.0550349198,-0.09092725880000001,9.9625168951,-0.002138028333693054,-0.0039706240482871,0.0070249502392771765,,,,0.9999916672751352,-0.0013674990329143337,-0.0016648346787482174,0.003467513833101113
1917685.006488509,-0.0550349198,-0.09092725880000001,9.9625168951,-0.002138028333693054,-0.004581489286485115,0.007330382858376184,,,,0.9999915616743849,-0.0013769846655513251,-0.00167436250966434,0.0034895563388684533
1917685.008961454,-0.0490528633,-0.08614161359999999,9.9577312499,-0.002138028333693054,-0.004581489286485115,0.007330382858376184,,,,0.9999915180486897,-0.00138087766318488,-0.0016782758783995006,0.0034986279642905747
1917685.01712649,-0.045463629400000004,-0.0789631458,9.9744810081,-0.002138028333693054,-0.004581489286485115,0.007330382858376184,,,,0.9999913738347102,-0.0013934856563362172,-0.0016910282772226938,0.003528580062896112
1917685.0272057,-0.041874395499999995,-0.0873380249,9.9529456047,-0.002138028333693054,-0.004581489286485115,0.0070249502392771765,,,,0.9999911979093024,-0.0014096923908007838,-0.0017072389648738644,0.00356401548798661
1917685.037596568,-0.045463629400000004,-0.09092725880000001,9.9493563708,-0.0015271630954950383,-0.004276056667386108,0.007330382858376184,,,,0.9999910161886572,-0.0014232459872176055,-0.0017223593050527384,0.00360213704084581
1917685.045491194,-0.045463629400000004,-0.09092725880000001,9.955338427300001,-0.000916297857297023,-0.004276056667386108,0.007330382858376184,,,,0.999990880392557,-0.0014311097030552597,-0.0017338206137084526,0.003631104902928821
1917685.048127633,-0.0526420972,-0.0777667345,9.955338427300001,-0.000916297857297023,-0.004276056667386108,0.007330382858376184,,,,0.9999908355615312,-0.001433448680539103,-0.0017374546092759193,0.00364077866830425
1917685.056756715,-0.0490528633,-0.0789631458,9.9684989516,-0.0015271630954950383,-0.004276056667386108,0.007330382858376184,,,,0.9999906838031379,-0.0014439172432672872,-0.001749462595664885,0.0036724365962733196
1917685.066364998,-0.062213387599999996,-0.0777667345,9.966106129,-0.0012217304763960308,-0.004581489286485115,0.0070249502392771765,,,,0.9999905196608654,-0.0014535532247674742,-0.001763993939775267,0.0037062240617054816
1917685.074967007,-0.0538385085,-0.0801595571,9.9481599595,-0.000916297857297023,-0.0039706240482871,0.006719517620178169,,,,0.9999903820895867,-0.0014612381295583008,-0.0017745712883700795,0.003735158389364512
1917685.084661533,-0.044267218100000005,-0.0753739119,9.9565348386,-0.000916297857297023,-0.003665191429188092,0.006414085001079161,,,,0.9999902339877288,-0.0014699297854953053,-0.0017850299119838906,0.003766285146754401
1917685.095235383,-0.0502492746,-0.0801595571,9.9673025403,-0.0012217304763960308,-0.004581489286485115,0.006719517620178169,,,,0.9999900537244855,-0.0014810755259865934,-0.0018013244184890585,0.0038018545114719524
1917685.105102106,-0.0323031051,-0.0729810893,9.966106129,-0.0015271630954950383,-0.004886921905584123,0.007330382858376184,,,,0.9999898668552971,-0.00149321830312999,-0.0018181833156336832,0.0038380587873388544
1917685.114019134,-0.0346959277,-0.0801595571,9.9493563708,-0.0015271630954950383,-0.004886921905584123,0.0070249502392771765,,,,0.9999897008348421,-0.0015045198130415477,-0.001833645436080156,0.003869417112461745
1917685.124092583,-0.044267218100000005,-0.08374879099999999,9.9469635482,-0.0015271630954950383,-0.004276056667386108,0.0070249502392771765,,,,0.9999895179682445,-0.0015170779203080677,-0.0018478827545467438,0.0039048377107332144
1917685.134242196,-0.0394815729,-0.0777667345,9.9565348386,-0.001832595714594046,-0.004581489286485115,0.007330382858376184,,,,0.9999893213355593,-0.0015310518159068888,-0.0018636346593639101,0.003942075727445182
1917685.14280926,-0.044267218100000005,-0.0849452023,9.9696953629,-0.001832595714594046,-0.0039706240482871,0.0070249502392771765,,,,0.9999891634941499,-0.0015430530108156307,-0.0018744448077985265,0.003972195657156869
1917685.15300905,-0.040677984199999996,-0.0801595571,9.9673025403,-0.001832595714594046,-0.004886921905584123,0.0070249502392771765,,,,0.9999889657339962,-0.0015571379751072327,-0.001891866998655584,0.004008063227854139
1917685.161681014,-0.040677984199999996,-0.0801595571,9.9673025403,-0.001832595714594046,-0.004886921905584123,0.006719517620178169,,,,0.9999888016173747,-0.001569081386686754,-0.001906663017809598,0.004037234150424188
1917685.16442152,-0.0574277424,-0.08135596839999999,9.9589276612,-0.0012217304763960308,-0.004276056667386108,0.006719517620178169,,,,0.999988752838246,-0.0015718649061826353,-0.0019104073941172742,0.004046452930002035
1917685.172993416,-0.056231331100000004,-0.071784678,9.9601240725,-0.002138028333693054,-0.004886921905584123,0.006414085001079161,,,,0.999988594980553,-0.0015839592518875373,-0.0019245025947042347,0.004073974922703628
1917685.18238582,-0.0550349198,-0.08374879099999999,9.9696953629,-0.0015271630954950383,-0.004886921905584123,0.007330382858376184,,,,0.9999884057031051,-0.0015951121606280344,-0.001940306322913412,0.004108441058400976
1917685.192461478,-0.0502492746,-0.071784678,9.9589276612,-0.0015271630954950383,-0.004276056667386108,0.007330382858376184,,,,0.9999882086990601,-0.0016064121028433658,-0.0019538389304231403,0.004145409079310526
1917685.201065887,-0.041874395499999995,-0.08135596839999999,9.9601240725,-0.001832595714594046,-0.00519235452468313,0.007330382858376184,,,,0.999988027036972,-0.0016181894445704756,-0.0019697844856070863,0.004176983924536071
1917685.211964644,-0.059820565,-0.0741775006,9.9469635482,-0.001832595714594046,-0.004276056667386108,0.0070249502392771765,,,,0.9999878151865951,-0.0016318842209922034,-0.001984348572586869,0.004215304612014121
1917685.220447194,-0.051445685899999996,-0.0753739119,9.955338427300001,-0.001832595714594046,-0.004581489286485115,0.006719517620178169,,,,0.9999876512439388,-0.001642800387824158,-0.0019971012596538117,0.004243837069804073
1917685.230770892,-0.0370887503,-0.09092725880000001,9.9684989516,-0.0012217304763960308,-0.004276056667386108,0.006719517620178169,,,,0.9999874540459608,-0.0016545273561180509,-0.0020120002908600356,0.004278568070615906
1917685.239661455,-0.0370887503,-0.09092725880000001,9.9684989516,-0.0015271630954950383,-0.0039706240482871,0.0070249502392771765,,,,0.9999872776786354,-0.0016659692053896434,-0.002023459086248925,0.004309830716501183
1917685.242546477,-0.040677984199999996,-0.09690931529999999,9.9673025403,-0.0015271630954950383,-0.0039706240482871,0.0070249502392771765,,,,0.9999872200348706,-0.001669726893219351,-0.0020272121696964106,0.004319975677304537
1917685.249248745,-0.040677984199999996,-0.09690931529999999,9.9673025403,-0.001832595714594046,-0.004276056667386108,0.006719517620178169,,,,0.9999870862725807,-0.0016794688284191902,-0.0020369570107548357,0.004342519852000062
1917685.252381007,-0.0370887503,-0.09092725880000001,9.9625168951,-0.001832595714594046,-0.004276056667386108,0.006719517620178169,,,,0.9999870237200764,-0.0016839601746809544,-0.0020414639788761493,0.004353055756165614
1917685.259054442,-0.0370887503,-0.09092725880000001,9.9625168951,-0.0015271630954950383,-0.0039706240482871,0.006719517620178169,,,,0.9999868937781958,-0.00169250844638747,-0.0020500382095235232,0.004375503437745482
1917685.262446137,-0.0370887503,-0.0897308475,9.9481599595,-0.0015271630954950383,-0.0039706240482871,0.006719517620178169,,,,0.9999868275770621,-0.001696824984144463,-0.0020543753786574108,0.004386912255766893
1917685.269284248,-0.041874395499999995,-0.08374879099999999,9.9589276612,-0.001832595714594046,-0.004581489286485115,0.006414085001079161,,,,0.9999866933490534,-0.0017061585243767408,-0.002064947051449171,0.004408870784080914
1917685.279280448,-0.051445685899999996,-0.0825523797,9.9589276612,-0.0012217304763960308,-0.004581489286485115,0.0070249502392771765,,,,0.9999864888974039,-0.0017163039416270176,-0.0020801257573446644,0.004444029731665038
1917685.289615634,-0.051445685899999996,-0.0825523797,9.9577312499,-0.0015271630954950383,-0.004276056667386108,0.0070249502392771765,,,,0.9999862765089625,-0.001728354785716743,-0.002094235243092979,0.004480375232284162
1917685.297867648,-0.051445685899999996,-0.0825523797,9.9577312499,-0.0012217304763960308,-0.003665191429188092,0.0070249502392771765,,,,0.9999861132854745,-0.0017367068305055708,-0.0021029638161416645,0.004509393394128562
1917685.300950821,-0.044267218100000005,-0.0777667345,9.9577312499,-0.0012217304763960308,-0.003665191429188092,0.0070249502392771765,,,,0.9999860521306859,-0.001739797772175442,-0.002106209845077866,0.004520235379447722
1917685.3089931,-0.0502492746,-0.0825523797,9.9601240725,-0.0015271630954950383,-0.004886921905584123,0.007330382858376184,,,,0.9999858735705767,-0.0017491594249305282,-0.0021196396353900006,0.004549750368225186
1917685.317427072,-0.0502492746,-0.0825523797,9.9613204838,-0.001832595714594046,-0.00519235452468313,0.007330382858376184,,,,0.9999856801270648,-0.0017602406092629367,-0.002135007673880268,0.004580702570742371
1917685.320791759,-0.0490528633,-0.0705882667,9.9613204838,-0.001832595714594046,-0.00519235452468313,0.007330382858376184,,,,0.9999856033649087,-0.0017643774464920167,-0.0021410096227830874,0.004593050504940847
1917685.326858389,-0.0490528633,-0.0705882667,9.9613204838,-0.0015271630954950383,-0.004581489286485115,0.007330382858376184,,,,0.9999854700830967,-0.0017709122881449156,-0.0021499717731114057,0.0046153129612967565
1917685.329363111,-0.0502492746,-0.0646062102,9.9601240725,-0.0015271630954950383,-0.004581489286485115,0.007330382858376184,,,,0.9999854152069961,-0.0017734795995243237,-0.002153625686614778,0.004624504276522377
1917685.33752357,-0.0538385085,-0.0825523797,9.9625168951,-0.001832595714594046,-0.0039706240482871,0.006719517620178169,,,,0.9999852478526136,-0.0017840779306413704,-0.0021634435160528447,0.004651951766447349
1917685.347583036,-0.0526420972,-0.0777667345,9.9601240725,-0.001832595714594046,-0.004581489286485115,0.006414085001079161,,,,0.9999850416035808,-0.0017968180023410938,-0.002178477344447661,0.0046842556090603655
1917685.355929197,-0.0526420972,-0.0777667345,9.9601240725,-0.000916297857297023,-0.004276056667386108,0.006719517620178169,,,,0.9999848731469245,-0.001803550730691291,-0.00218964589223866,0.0047123383746928565
1917685.359188312,-0.0610169763,-0.0753739119,9.9613204838,-0.000916297857297023,-0.004276056667386108,0.006719517620178169,,,,0.9999848074726922,-0.0018060444406201553,-0.002193951516438526,0.00472330435443178
1917685.367837299,-0.0502492746,-0.0789631458,9.9589276612,-0.0012217304763960308,-0.004276056667386108,0.0070249502392771765,,,,0.9999846225005125,-0.0018144626023920787,-0.0022055821820705615,0.004753724351532444
1917685.377088098,-0.0550349198,-0.0873380249,9.9684989516,-0.001832595714594046,-0.004276056667386108,0.006719517620178169,,,,0.9999844239960188,-0.001826635404887685,-0.0022182084279871754,0.004784842716131961
1917685.386782111,-0.044267218100000005,-0.0801595571,9.9684989516,-0.0015271630954950383,-0.004581489286485115,0.0070249502392771765,,,,0.9999842072997444,-0.0018377714899963599,-0.002232840991969348,0.004818938488616004
1917685.395371288,-0.041874395499999995,-0.08374879099999999,9.9517491934,-0.0015271630954950383,-0.004276056667386108,0.006719517620178169,,,,0.999984022524799,-0.0018479140320675435,-0.0022446394846465934,0.0048478348194353465
1917685.405004467,-0.0382851616,-0.0777667345,9.9613204838,-0.001832595714594046,-0.004276056667386108,0.0070249502392771765,,,,0.9999838050424311,-0.0018604519716551695,-0.00225771297345364,0.004881711119251419
1917685.415403976,-0.031106693799999998,-0.08135596839999999,9.9696953629,-0.0015271630954950383,-0.004581489286485115,0.007330382858376184,,,,0.9999835584613809,-0.0018729394280984682,-0.002273698632719952,0.004919877980215906
1917685.425071876,-0.041874395499999995,-0.0789631458,9.9481599595,-0.0015271630954950383,-0.004276056667386108,0.0070249502392771765,,,,0.9999833400972676,-0.0018839563478174367,-0.002286767967846899,0.004953880161368889
1917685.433648029,-0.041874395499999995,-0.0789631458,9.9481599595,-0.0015271630954950383,-0.0033597588100890844,0.006719517620178169,,,,0.9999831607934622,-0.0018937239483997118,-0.0022944243818487377,0.004982725748040835
1917685.436184912,-0.044267218100000005,-0.0705882667,9.976873830699999,-0.0015271630954950383,-0.0033597588100890844,0.006719517620178169,,,,0.9999831081152212,-0.0018964218361983186,-0.0022966083021289056,0.00499125823293025
1917685.44419551,-0.047856452,-0.0765703232,9.945767136899999,-0.0012217304763960308,-0.004276056667386108,0.0070249502392771765,,,,0.9999829281336504,-0.0019039906068077542,-0.0023072795266467962,0.005019434450792752
1917685.454549833,-0.045463629400000004,-0.0765703232,9.9696953629,-0.0015271630954950383,-0.004276056667386108,0.006719517620178169,,,,0.9999826988906775,-0.0019153988740913204,-0.0023211039295926356,0.005054269780890056
1917685.464663156,-0.06340979890000001,-0.08135596839999999,9.9673025403,-0.000916297857297023,-0.004276056667386108,0.006414085001079161,,,,0.999982487874245,-0.0019232520552497259,-0.002334512687265828,0.005086757010159863
1917685.473556024,-0.0490528633,-0.0741775006,9.9290173787,-0.0015271630954950383,-0.004276056667386108,0.006414085001079161,,,,0.9999822963041484,-0.001932768514683647,-0.002346276152918802,0.005115317425667531
1917685.483275318,-0.0550349198,-0.08374879099999999,10.0079805245,-0.001832595714594046,-0.004276056667386108,0.006414085001079161,,,,0.9999820815781227,-0.001945087932606057,-0.0023593199828689285,0.005146529397340221
1917685.491983635,-0.0550349198,-0.08374879099999999,10.0079805245,-0.0015271630954950383,-0.004886921905584123,0.0070249502392771765,,,,0.9999818706714642,-0.001954767955061325,-0.002373645573017229,0.0051771630585437265
1917685.494502213,-0.0346959277,-0.0849452023,9.9314102013,-0.0015271630954950383,-0.004886921905584123,0.0070249502392771765,,,,0.9999818088233356,-0.0019577634329193596,-0.002377887512808123,0.005186023112851377
1917685.50245601,-0.0550349198,-0.09690931529999999,9.9589276612,-0.0012217304763960308,-0.0039706240482871,0.0070249502392771765,,,,0.9999816238703272,-0.001966038574436634,-0.0023876397995655175,0.005213999441393351
1917685.512882303,-0.0394815729,-0.08614161359999999,9.980463064599999,-0.001832595714594046,-0.004581489286485115,0.0070249502392771765,,,,0.999981366599707,-0.0019798854245046808,-0.002403530821183453,0.0052506710694699265
1917685.522909863,-0.040677984199999996,-0.0765703232,9.93021379,-0.001832595714594046,-0.004581489286485115,0.0070249502392771765,,,,0.9999811198503489,-0.001992454200586946,-0.0024184524782626085,0.005285939529667869
1917685.531375516,-0.041874395499999995,-0.0801595571,9.9984092341,-0.0012217304763960308,-0.0039706240482871,0.0070249502392771765,,,,0.9999809212812365,-0.0020006384764538936,-0.0024285142726636136,0.005315716098844343
1917685.541603787,-0.04307080679999999,-0.0789631458,9.9481599595,-0.001832595714594046,-0.004581489286485115,0.006719517620178169,,,,0.9999806747921783,-0.0020135048705186144,-0.0024437592453883787,0.0053501290700798685
1917685.550040863,-0.04307080679999999,-0.0789631458,9.9481599595,-0.0015271630954950383,-0.004276056667386108,0.006719517620178169,,,,0.9999804761225368,-0.002022812317027568,-0.0024550287138754875,0.005378516346424261
1917685.552522929,-0.0550349198,-0.08135596839999999,9.9589276612,-0.0015271630954950383,-0.004276056667386108,0.006719517620178169,,,,0.999980417633853,-0.002025500818593183,-0.002458323482605835,0.005386867449043879
1917685.560911811,-0.04307080679999999,-0.0789631458,9.9445707256,-0.001832595714594046,-0.004581489286485115,0.0070249502392771765,,,,0.9999802061448049,-0.002036011227686008,-0.0024708049229227825,0.005416373316818927
1917685.569509821,-0.04307080679999999,-0.0789631458,9.9445707256,-0.001832595714594046,-0.004276056667386108,0.006108652381980153,,,,0.9999800129725784,-0.0020467609497354,-0.002482284002885304,0.005442673158076197
1917685.572171284,-0.041874395499999995,-0.0693918554,9.9828558872,-0.001832595714594046,-0.004276056667386108,0.006108652381980153,,,,0.9999799535885309,-0.002049886033954526,-0.0024857628306329915,0.0054508138362406545
1917685.58060932,-0.051445685899999996,-0.0789631458,9.9613204838,-0.0012217304763960308,-0.004581489286485115,0.006719517620178169,,,,0.9999797514990454,-0.00205762506579307,-0.0024982040692340113,0.005479210474569373
1917685.588991674,-0.051445685899999996,-0.0789631458,9.9613204838,-0.0012217304763960308,-0.004276056667386108,0.0070249502392771765,,,,0.9999795459379711,-0.0020653084825455513,-0.002509274858641814,0.005508697327400863
1917685.591510317,-0.0538385085,-0.0825523797,9.955338427300001,-0.0012217304763960308,-0.004276056667386108,0.0070249502392771765,,,,0.9999794838364966,-0.0020676599062659858,-0.002512618051254148,0.00551755735215598
1917685.599732378,-0.0610169763,-0.0897308475,9.990034354999999,-0.001832595714594046,-0.004276056667386108,0.006719517620178169,,,,0.9999792815486992,-0.002078048648994383,-0.0025236345639118737,0.005545219179424389
1917685.608410038,-0.0610169763,-0.0897308475,9.990034354999999,-0.0006108652381980154,-0.00519235452468313,0.006414085001079161,,,,0.9999790753818137,-0.0020836709322990567,-0.002539203453725045,0.005573110424122263
1917685.610895079,-0.044267218100000005,-0.0897308475,9.937392257800001,-0.0006108652381980154,-0.00519235452468313,0.006414085001079161,,,,0.9999790157388312,-0.0020854046102129495,-0.0025437207777383656,0.005581097939931519
1917685.619109716,-0.0466600407,-0.0921236701,9.9708917742,-0.0015271630954950383,-0.003665191429188092,0.007330382858376184,,,,0.9999788048475319,-0.0020949884452381006,-0.0025524174819189175,0.00561124265328423
1917685.62784501,-0.0466600407,-0.0921236701,9.9708917742,-0.000916297857297023,-0.0039706240482871,0.007330382858376184,,,,0.9999785816558932,-0.0021024888251433282,-0.0025629763548024004,0.0056433077546064
1917685.630490537,-0.0610169763,-0.08853443620000001,9.9481599595,-0.000916297857297023,-0.0039706240482871,0.007330382858376184,,,,0.999978514388382,-0.0021045907216620794,-0.0025660943105348635,0.0056530186173539615
1917685.638847035,-0.035892339,-0.0849452023,9.978070242000001,-0.002138028333693054,-0.004581489286485115,0.007330382858376184,,,,0.9999782824529662,-0.0021167355793586954,-0.0025787150736236615,0.00568368555357974
1917685.647132682,-0.035892339,-0.0849452023,9.978070242000001,-0.0012217304763960308,-0.004886921905584123,0.006108652381980153,,,,0.999978085029158,-0.0021249392421154928,-0.0025924723812006585,0.005709043841854203
1917685.649634268,-0.047856452,-0.08135596839999999,9.950552782099999,-0.0012217304763960308,-0.004886921905584123,0.006108652381980153,,,,0.9999780257729749,-0.0021272560463348523,-0.002596554779336379,0.005716699762525111
1917685.657808039,-0.040677984199999996,-0.0765703232,9.9756774194,-0.0024434609527920616,-0.004581489286485115,0.006414085001079161,,,,0.9999778174519174,-0.00213968992611627,-0.0026086176625679477,0.005742947414907547
1917685.667891217,-0.041874395499999995,-0.0610169763,9.9338030239,-0.0015271630954950383,-0.004581489286485115,0.0070249502392771765,,,,0.9999775551570163,-0.002149075935698739,-0.0026230830363724385,0.0057784158905002025
1917685.676307013,-0.041874395499999995,-0.0610169763,9.9338030239,-0.001832595714594046,-0.003665191429188092,0.007330382858376184,,,,0.9999773350074685,-0.0021582025757759834,-0.0026313018219270754,0.005809292876488137
1917685.679333768,-0.041874395499999995,-0.0933200814,9.9816594759,-0.001832595714594046,-0.003665191429188092,0.007330382858376184,,,,0.9999772532679474,-0.0021622200891163825,-0.0026345215213329247,0.005820399241582064
1917685.687145768,-0.040677984199999996,-0.0789631458,9.963713306399999,-0.0012217304763960308,-0.004276056667386108,0.007635815477475192,,,,0.9999770360588579,-0.00216943996770851,-0.0026448537192258954,0.005850267854724071
1917685.695621853,-0.040677984199999996,-0.0789631458,9.963713306399999,-0.0012217304763960308,-0.004581489286485115,0.006414085001079161,,,,0.9999768262486114,-0.0021772378530843244,-0.0026573642579930962,0.005877500853765975
1917685.698409688,-0.04307080679999999,-0.08614161359999999,9.964909717700001,-0.000916297857297023,-0.004581489286485115,0.006414085001079161,,,,0.9999767575624905,-0.002179496877291238,-0.0026615267342481415,0.005886459344379646
1917685.706310171,-0.0346959277,-0.08135596839999999,9.9493563708,-0.000916297857297023,-0.004581489286485115,0.006414085001079161,,,,0.9999765625686593,-0.002185835248693391,-0.002673294628572707,0.005911846874093759
1917685.716379141,-0.051445685899999996,-0.08374879099999999,9.966106129,-0.0012217304763960308,-0.004886921905584123,0.007330382858376184,,,,0.9999762790581816,-0.002195110509817378,-0.002689687221111835,0.005948814458016591
1917685.726258248,-0.0382851616,-0.0789631458,9.9529456047,-0.000916297857297023,-0.00519235452468313,0.0070249502392771765,,,,0.9999760074864471,-0.002202689849208703,-0.0027072739727064745,0.005983583920206786
1917685.735051592,-0.0550349198,-0.0729810893,9.9673025403,-0.0012217304763960308,-0.004276056667386108,0.006719517620178169,,,,0.9999757829074775,-0.002210028382888576,-0.0027186568660268183,0.0060131753649239296
1917685.744809607,-0.047856452,-0.0777667345,9.964909717700001,-0.0012217304763960308,-0.004276056667386108,0.0070249502392771765,,,,0.9999755219839587,-0.0022186521369134864,-0.0027314292487974775,0.006047504432705389
1917685.755313055,-0.0538385085,-0.0789631458,9.9481599595,-0.001832595714594046,-0.004581489286485115,0.0070249502392771765,,,,0.99997522819786,-0.0022310660681712736,-0.0027467786236161688,0.006084450840474956
1917685.765141121,-0.0466600407,-0.0693918554,9.9577312499,-0.0015271630954950383,-0.003665191429188092,0.007635815477475192,,,,0.9999749508887087,-0.0022406381720029185,-0.002756456129277205,0.00612201644184727
1917685.773609814,-0.056231331100000004,-0.0753739119,9.9816594759,-0.000916297857297023,-0.004276056667386108,0.007635815477475192,,,,0.9999747087241175,-0.002246480635874673,-0.0027674178916162746,0.00615439965245528
1917685.783426167,-0.0538385085,-0.0825523797,9.950552782099999,-0.0012217304763960308,-0.004886921905584123,0.0070249502392771765,,,,0.9999744316707738,-0.0022552614306780355,-0.0027833073711893194,0.0061889418053234675
1917685.79377329,-0.0275174599,-0.0705882667,9.9589276612,-0.0015271630954950383,-0.004581489286485115,0.006719517620178169,,,,0.9999741496312393,-0.0022658019738657797,-0.0027983892678976425,0.006223763186401422
1917685.803604268,-0.0299102825,-0.0825523797,9.9613204838,-0.0012217304763960308,-0.004276056667386108,0.006414085001079161,,,,0.9999738942468682,-0.002275219285852694,-0.0028115494683231376,0.006255349034367385
1917685.812211206,-0.0299102825,-0.0825523797,9.9613204838,-0.0015271630954950383,-0.0039706240482871,0.0070249502392771765,,,,0.9999736538841495,-0.0022847735792993506,-0.0028217499594680538,0.006285624427286608
1917685.814693047,-0.0382851616,-0.0897308475,9.963713306399999,-0.0015271630954950383,-0.0039706240482871,0.0070249502392771765,,,,0.9999735841638382,-0.0022875854882819483,-0.0028247172163134867,0.006294354598276565
1917685.822746495,-0.0334995164,-0.0849452023,9.9732845968,-0.0012217304763960308,-0.0039706240482871,0.0070249502392771765,,,,0.9999733606865794,-0.002295319724721334,-0.002834264657411208,0.006322686802408474
1917685.832995438,-0.041874395499999995,-0.08135596839999999,9.9493563708,-0.0015271630954950383,-0.003665191429188092,0.007330382858376184,,,,0.999973067641102,-0.002306210269153394,-0.002844640922939594,0.006360299101304237
1917685.842984917,-0.047856452,-0.0825523797,9.9493563708,-0.0015271630954950383,-0.004581489286485115,0.006719517620178169,,,,0.9999727871649589,-0.0023166999369546165,-0.0028593064797908805,0.0063939187827820616
1917685.851667089,-0.04307080679999999,-0.08374879099999999,9.9684989516,-0.0012217304763960308,-0.004581489286485115,0.006719517620178169,,,,0.9999725447764998,-0.0023246433249846433,-0.0028721003397262765,0.00642314302047639
1917685.861873312,-0.0394815729,-0.08135596839999999,9.9720881855,-0.0012217304763960308,-0.004886921905584123,0.006719517620178169,,,,0.9999722543026135,-0.0023338695164659864,-0.0028886607292516434,0.00645750084944814
1917685.870388278,-0.0394815729,-0.08135596839999999,9.9720881855,-0.000916297857297023,-0.004886921905584123,0.0070249502392771765,,,,0.9999720054583356,-0.0023402507770255232,-0.0029024583825165416,0.006487469558529944
1917685.872874088,-0.0490528633,-0.0753739119,9.9684989516,-0.000916297857297023,-0.004886921905584123,0.0070249502392771765,,,,0.9999719331528975,-0.002341944705233608,-0.0029064327651839514,0.006496218133371366
1917685.881088469,-0.0538385085,-0.0705882667,9.9469635482,-0.0012217304763960308,-0.0039706240482871,0.0070249502392771765,,,,0.9999717026617686,-0.002348468813617214,-0.0029157244220716326,0.006525114638801105
1917685.89132234,-0.044267218100000005,-0.0705882667,9.9601240725,-0.0015271630954950383,-0.004581489286485115,0.0070249502392771765,,,,0.9999714008768683,-0.0023582837153539216,-0.0029304691606940594,0.006561118560862205
1917685.901429838,-0.0466600407,-0.08135596839999999,9.9625168951,-0.0015271630954950383,-0.004581489286485115,0.0070249502392771765,,,,0.9999710988396834,-0.00236872224287418,-0.0029452429808788636,0.00659667977668098
1917685.910030056,-0.056231331100000004,-0.08135596839999999,9.9696953629,-0.002138028333693054,-0.004581489286485115,0.0070249502392771765,,,,0.9999708349943025,-0.0023800343791406378,-0.0029577687976821494,0.0066269299748157205
1917685.920466526,-0.0538385085,-0.0801595571,9.9625168951,-0.0012217304763960308,-0.004886921905584123,0.0070249502392771765,,,,0.9999705200712118,-0.0023889166256769213,-0.002974515226709459,0.006663657031384613
1917685.92941117,-0.0526420972,-0.08135596839999999,9.9517491934,-0.0012217304763960308,-0.00519235452468313,0.006108652381980153,,,,0.9999702718760958,-0.0023965899875932816,-0.002990268292775572,0.006691039980137146
1917685.939504813,-0.0538385085,-0.0741775006,9.963713306399999,-0.0015271630954950383,-0.004581489286485115,0.006108652381980153,,,,0.9999699978706695,-0.002406260652112533,-0.003004822875653883,0.006721927379349294
1917685.948184169,-0.0538385085,-0.0741775006,9.963713306399999,-0.0003054326190990077,-0.004276056667386108,0.006719517620178169,,,,0.9999697601932271,-0.002409275240191937,-0.003015966844922275,0.006751150709853506
1917685.950693915,-0.047856452,-0.08135596839999999,9.966106129,-0.0003054326190990077,-0.004276056667386108,0.006719517620178169,,,,0.9999696907821798,-0.002410300500021398,-0.0030192312867262016,0.006759601388292563
1917685.958856006,-0.0382851616,-0.0825523797,9.9577312499,-0.0006108652381980154,-0.004581489286485115,0.006719517620178169,,,,0.9999694568008416,-0.0024151295141883644,-0.0030311884594715877,0.006787084159096757
1917685.967507138,-0.0382851616,-0.0825523797,9.9577312499,-0.0015271630954950383,-0.004581489286485115,0.0070249502392771765,,,,0.9999691892276619,-0.002424203558174876,-0.0030438816188299747,0.006817522803174417
1917685.970023508,-0.0394815729,-0.0897308475,9.9625168951,-0.0015271630954950383,-0.004581489286485115,0.0070249502392771765,,,,0.999969110759978,-0.002426958526479937,-0.0030476183223519106,0.0068263768406903284
1917685.978065083,-0.035892339,-0.08614161359999999,9.9529456047,-0.0012217304763960308,-0.004886921905584123,0.006719517620178169,,,,0.9999688674366125,-0.0024343988222915816,-0.0030607319585045224,0.006853450210710975
1917685.988454095,-0.04307080679999999,-0.08614161359999999,9.9625168951,-0.0012217304763960308,-0.004886921905584123,0.007330382858376184,,,,0.9999685306056866,-0.002443798393790988,-0.0030775810608329656,0.0068915994173075
1917685.996594362,-0.04307080679999999,-0.08614161359999999,9.9625168951,-0.0015271630954950383,-0.004581489286485115,0.007635815477475192,,,,0.9999682576565615,-0.002452401245127216,-0.00308953907609756,0.006922727477719759
1917685.999745729,-0.0490528633,-0.0765703232,9.964909717700001,-0.0015271630954950383,-0.004581489286485115,0.007635815477475192,,,,0.9999681525624118,-0.002455471179534914,-0.003094088109990799,0.0069347776439640935
1917686.006571232,-0.04307080679999999,-0.0741775006,9.963713306399999,-0.0012217304763960308,-0.003665191429188092,0.006719517620178169,,,,0.9999679585367358,-0.002461038345055093,-0.0031008013511021055,0.006957745404819171
1917686.016365537,-0.047856452,-0.0669990328,9.964909717700001,-0.002138028333693054,-0.004276056667386108,0.0070249502392771765,,,,0.9999676501538046,-0.0024728764028788017,-0.0031133255009811473,0.0069921908225693595
1917686.026183458,-0.047856452,-0.0705882667,9.966106129,-0.0024434609527920616,-0.004581489286485115,0.006414085001079161,,,,0.9999673514330777,-0.0024864681970786498,-0.0031274418994447586,0.0070237205942591165
1917686.036182154,-0.0394815729,-0.06340979890000001,9.9684989516,-0.0015271630954950383,-0.004886921905584123,0.006414085001079161,,,,0.9999670539235546,-0.0024952307437620357,-0.0031432308229393338,0.007055847998377662
1917686.046584094,-0.045463629400000004,-0.0801595571,9.9720881855,-0.0012217304763960308,-0.004276056667386108,0.0070249502392771765,,,,0.9999667305129301,-0.002504026810638424,-0.003156721522357157,0.007092448536515534
1917686.056354238,-0.0502492746,-0.08853443620000001,9.9613204838,-0.001832595714594046,-0.004581489286485115,0.007330382858376184,,,,0.9999664008302396,-0.0025157171474620922,-0.0031710444784774712,0.007128313599028281
1917686.064984377,-0.0466600407,-0.0849452023,9.9577312499,-0.0012217304763960308,-0.004581489286485115,0.006719517620178169,,,,0.9999661343523798,-0.002523241661921135,-0.0031836313592829416,0.0071573662224376925
1917686.074684118,-0.0526420972,-0.0705882667,9.9577312499,-0.0012217304763960308,-0.00519235452468313,0.006414085001079161,,,,0.9999658384305875,-0.0025305745000994756,-0.0032004704949050024,0.0071885431850298945
1917686.084902693,-0.0538385085,-0.08135596839999999,9.9673025403,-0.0012217304763960308,-0.004581489286485115,0.006719517620178169,,,,0.9999655216502905,-0.002539054245349503,-0.0032152475080125583,0.007222942451921236
1917686.094835338,-0.04307080679999999,-0.0801595571,9.963713306399999,-0.0015271630954950383,-0.004581489286485115,0.0070249502392771765,,,,0.9999651971009722,-0.002548918621467951,-0.0032296455796983928,0.007257891574307983
1917686.103335104,-0.04307080679999999,-0.0801595571,9.963713306399999,-0.0015271630954950383,-0.004276056667386108,0.007330382858376184,,,,0.9999649129644171,-0.00255735633676313,-0.0032406604626017107,0.007289093798185661
1917686.105844978,-0.0526420972,-0.0825523797,9.9601240725,-0.0015271630954950383,-0.004276056667386108,0.007330382858376184,,,,0.9999648288622296,-0.002559841227653133,-0.0032439111802109307,0.007298307452830467
1917686.113829048,-0.040677984199999996,-0.0777667345,9.9601240725,-0.0012217304763960308,-0.004581489286485115,0.007330382858376184,,,,0.9999645601574727,-0.002566417881262766,-0.003255435693879486,0.007327623542044822
1917686.12330331,-0.0526420972,-0.0741775006,9.9696953629,-0.0012217304763960308,-0.004581489286485115,0.006719517620178169,,,,0.9999642627509489,-0.0025737653820980247,-0.003269016228353809,0.007359516669470588
1917686.133392344,-0.0502492746,-0.08853443620000001,9.963713306399999,-0.0012217304763960308,-0.004581489286485115,0.006414085001079161,,,,0.9999639525439004,-0.0025825980604050882,-0.0032837483118445037,0.00739194135955606
1917686.14378654,-0.045463629400000004,-0.0789631458,9.9613204838,-0.001832595714594046,-0.004276056667386108,0.0070249502392771765,,,,0.9999636071226842,-0.0025942909078322182,-0.0032971790241133224,0.0074285055939027145
1917686.152110173,-0.045463629400000004,-0.0789631458,9.9613204838,-0.0012217304763960308,-0.004276056667386108,0.006719517620178169,,,,0.9999633454740056,-0.0026010900127685743,-0.003307914159906121,0.007456523525807983
1917686.155375272,-0.044267218100000005,-0.0705882667,9.9529456047,-0.0012217304763960308,-0.004276056667386108,0.006719517620178169,,,,0.9999632432426797,-0.0026035574264243505,-0.0033120829080407425,0.007467513583458527
1917686.163240649,-0.051445685899999996,-0.0741775006,9.9601240725,-0.001832595714594046,-0.004276056667386108,0.006719517620178169,,,,0.9999629896979915,-0.0026120306633053104,-0.0033221664933747795,0.007493980241433425
1917686.171515992,-0.051445685899999996,-0.0741775006,9.9601240725,-0.0015271630954950383,-0.004276056667386108,0.006719517620178169,,,,0.9999627253447007,-0.002619669632254554,-0.0033327638364873684,0.00752183072309263
1917686.175681056,-0.0502492746,-0.08853443620000001,9.9684989516,-0.0015271630954950383,-0.004276056667386108,0.006719517620178169,,,,0.9999625905127731,-0.00262392181873867,-0.003338200811021952,0.007535849296432057
1917686.181805513,-0.0526420972,-0.0705882667,9.9673025403,-0.001832595714594046,-0.004276056667386108,0.0070249502392771765,,,,0.9999623849531223,-0.002630335037913711,-0.003346017089617611,0.007557392810227725
1917686.191761103,-0.04307080679999999,-0.08135596839999999,9.9696953629,-0.0024434609527920616,-0.004276056667386108,0.0070249502392771765,,,,0.9999620385453591,-0.0026446939723545663,-0.00335893511677149,0.007592405210709009
1917686.202014014,-0.044267218100000005,-0.0849452023,9.950552782099999,-0.001832595714594046,-0.004886921905584123,0.006719517620178169,,,,0.9999616890199562,-0.0026565418375349517,-0.0033754128690409594,0.007626917187527294
1917686.211867969,-0.0323031051,-0.0921236701,9.9684989516,-0.002138028333693054,-0.004581489286485115,0.006719517620178169,,,,0.9999613497983236,-0.002670188158687513,-0.003390013376759854,0.007660079243539461
1917686.220367319,-0.0502492746,-0.08374879099999999,9.9732845968,-0.002138028333693054,-0.004581489286485115,0.0070249502392771765,,,,0.9999610492862983,-0.0026811088207044473,-0.003402321865464535,0.007689978651526475
1917686.2304072,-0.0370887503,-0.08614161359999999,9.966106129,-0.0024434609527920616,-0.004276056667386108,0.007330382858376184,,,,0.9999606805423986,-0.002695969494102634,-0.0034154546692532315,0.007726822572847498
1917686.240635247,-0.040677984199999996,-0.0765703232,9.9613204838,-0.002138028333693054,-0.004581489286485115,0.0070249502392771765,,,,0.999960317071615,-0.002708709156259513,-0.003430170573849669,0.007762802752636718
1917686.248839739,-0.040677984199999996,-0.0765703232,9.9613204838,-0.002138028333693054,-0.004581489286485115,0.007330382858376184,,,,0.9999600146046503,-0.0027189130191104813,-0.0034419674544838913,0.007792917547638445
1917686.251935073,-0.041874395499999995,-0.0741775006,9.9684989516,-0.0015271630954950383,-0.004886921905584123,0.007330382858376184,,,,0.9999599013703937,-0.002721745512086202,-0.00344686994253354,0.007804283457125612
1917686.259820291,-0.047856452,-0.0765703232,9.9684989516,-0.0015271630954950383,-0.004581489286485115,0.0070249502392771765,,,,0.9999596255380391,-0.002729037245588136,-0.0034581713879728564,0.007832030400122923
1917686.269869836,-0.045463629400000004,-0.0801595571,9.976873830699999,-0.001832595714594046,-0.004276056667386108,0.006719517620178169,,,,0.9999592848591263,-0.0027401446216007317,-0.0034711142620265146,0.00786585006578867
1917686.278311424,-0.045463629400000004,-0.0801595571,9.963713306399999,-0.001832595714594046,-0.004276056667386108,0.007635815477475192,,,,0.9999589670813063,-0.002749476883740007,-0.003481973055223422,0.007898125992642864
1917686.280837587,-0.041874395499999995,-0.0849452023,9.963713306399999,-0.001832595714594046,-0.004276056667386108,0.007635815477475192,,,,0.9999588713892936,-0.0027523664394224997,-0.003485246912156851,0.007907784948680828
1917686.289141699,-0.0466600407,-0.0753739119,9.955338427300001,-0.0015271630954950383,-0.004276056667386108,0.0070249502392771765,,,,0.9999585819277037,-0.0027599575033738833,-0.0034958620472714474,0.007937002725333037
1917686.298178539,-0.0466600407,-0.0753739119,9.9469635482,-0.0015271630954950383,-0.004581489286485115,0.006108652381980153,,,,0.999958293932572,-0.0027681842403464675,-0.003508803693824895,0.007964662460497153
1917686.301041128,-0.0490528633,-0.0801595571,9.9469635482,-0.0015271630954950383,-0.004581489286485115,0.006108652381980153,,,,0.9999582022064619,-0.0027708730991900755,-0.0035129195975559177,0.007973424495782342
1917686.307707042,-0.051445685899999996,-0.0825523797,9.9744810081,-0.0015271630954950383,-0.003665191429188092,0.006414085001079161,,,,0.999957990572144,-0.0027772353328966177,-0.0035194635550121287,0.007994837778890405
1917686.318423361,-0.044267218100000005,-0.0765703232,9.964909717700001,-0.0012217304763960308,-0.004276056667386108,0.006108652381980153,,,,0.9999576565709245,-0.0027854497263637983,-0.00353317601003387,0.008027639895329454
1917686.326912567,-0.044267218100000005,-0.0765703232,9.9589276612,-0.0012217304763960308,-0.004276056667386108,0.006108652381980153,,,,0.9999573910745686,-0.002791946139840233,-0.003544036636031017,0.00805362504820574
1917686.331093728,-0.0550349198,-0.0849452023,9.9589276612,-0.0012217304763960308,-0.004276056667386108,0.006108652381980153,,,,0.9999572593918549,-0.0027953167278481285,-0.0035494221990615533,0.008066423989258834
1917686.336292874,-0.0550349198,-0.0849452023,9.9589276612,-0.0015271630954950383,-0.004581489286485115,0.006719517620178169,,,,0.999957077491813,-0.00280029803045991,-0.0035569141672026046,0.008083926433378557
1917686.338808989,-0.045463629400000004,-0.08614161359999999,9.9589276612,-0.0015271630954950383,-0.004581489286485115,0.006719517620178169,,,,0.9999569891129473,-0.0028027649994094134,-0.003560554048922843,0.00809239688793039
1917686.347008201,-0.045463629400000004,-0.0753739119,9.9708917742,-0.0015271630954950383,-0.004581489286485115,0.0070249502392771765,,,,0.9999566925831259,-0.0028101804884638954,-0.0035722747995860556,0.008121249694126682
1917686.356438558,-0.045463629400000004,-0.0753739119,9.964909717700001,-0.0012217304763960308,-0.0039706240482871,0.0070249502392771765,,,,0.9999563646768794,-0.0028172826509270743,-0.0035828618364634377,0.008154432029601174
1917686.359179703,-0.0526420972,-0.0658026215,9.964909717700001,-0.0012217304763960308,-0.0039706240482871,0.0070249502392771765,,,,0.9999562698046707,-0.002819141193290232,-0.00358591334408095,0.008164076601169568
1917686.367184126,-0.0466600407,-0.0789631458,9.9469635482,-0.0012217304763960308,-0.0039706240482871,0.006719517620178169,,,,0.9999559995371953,-0.0028253510972902976,-0.003594937239406216,0.00819101989928878
1917686.376165764,-0.0334995164,-0.0753739119,9.9625168951,-0.001832595714594046,-0.004276056667386108,0.006414085001079161,,,,0.9999556941657275,-0.002834949435098476,-0.003606442206765617,0.008219874807306644
1917686.385906274,-0.041874395499999995,-0.0777667345,9.964909717700001,-0.0012217304763960308,-0.004581489286485115,0.006414085001079161,,,,0.9999553647056129,-0.002842418679425514,-0.003620391115266505,0.008251182987190065
1917686.394724067,-0.041874395499999995,-0.0777667345,9.964909717700001,-0.0012217304763960308,-0.003665191429188092,0.0070249502392771765,,,,0.9999550578057451,-0.0028492103650941594,-0.0036289688191565796,0.00828220709196257
1917686.397278839,-0.0394815729,-0.0789631458,9.9673025403,-0.0012217304763960308,-0.003665191429188092,0.0070249502392771765,,,,0.9999549685874533,-0.0028512054137262216,-0.0036314593737951334,0.008291195798606764
1917686.405059797,-0.0382851616,-0.0753739119,9.963713306399999,-0.0012217304763960308,-0.0039706240482871,0.007330382858376184,,,,0.9999546827931733,-0.0028570781687252307,-0.003640192602604147,0.008319763347459591
1917686.415121439,-0.041874395499999995,-0.0849452023,9.9529456047,-0.0012217304763960308,-0.004581489286485115,0.0070249502392771765,,,,0.9999543111114371,-0.002865284882035902,-0.0036546985289080004,0.008355178685048113
1917686.423684247,-0.041874395499999995,-0.0849452023,9.9529456047,-0.0012217304763960308,-0.004276056667386108,0.0070249502392771765,,,,0.9999539984377264,-0.002872265803240451,-0.0036657324179450554,0.008385314746582074
1917686.426194697,-0.041874395499999995,-0.08374879099999999,9.9517491934,-0.0012217304763960308,-0.004276056667386108,0.0070249502392771765,,,,0.999953906655154,-0.002874288139112864,-0.0036689614524455707,0.008394150025429719
1917686.434612989,-0.0466600407,-0.0849452023,9.9720881855,-0.0012217304763960308,-0.004581489286485115,0.0070249502392771765,,,,0.9999535934939019,-0.002881053275726338,-0.003681073612443557,0.00842378108183544
1917686.443006864,-0.0466600407,-0.0849452023,9.9720881855,-0.0012217304763960308,-0.004581489286485115,0.006719517620178169,,,,0.9999532910505412,-0.002887783141751763,-0.0036931517721008984,0.008452044469017263
1917686.445586884,-0.04307080679999999,-0.0897308475,9.9613204838,-0.0012217304763960308,-0.004581489286485115,0.006719517620178169,,,,0.9999531975161026,-0.002889948287670098,-0.003696889059873872,0.008460732089845928
1917686.453774512,-0.045463629400000004,-0.08135596839999999,9.9589276612,-0.000916297857297023,-0.004886921905584123,0.0070249502392771765,,,,0.9999528903481861,-0.0028950612909720867,-0.0037098638616608836,0.008489559149807273
1917686.464033056,-0.0586241537,-0.08135596839999999,9.9601240725,-0.000916297857297023,-0.004276056667386108,0.006414085001079161,,,,0.9999525430583213,-0.0029013069777246154,-0.003722962322567604,0.008522534867157074
1917686.472127145,-0.0586241537,-0.08135596839999999,9.9601240725,-0.000916297857297023,-0.004276056667386108,0.0070249502392771765,,,,0.9999522470214004,-0.0029062352360601017,-0.0037332883408519833,0.008551025188191872
1917686.475240527,-0.0466600407,-0.0849452023,9.964909717700001,-0.0012217304763960308,-0.0039706240482871,0.0070249502392771765,,,,0.9999521328631852,-0.0029087267423331077,-0.00373681269212902,0.008561981196508826
1917686.481998636,-0.0466600407,-0.0849452023,9.964909717700001,-0.0015271630954950383,-0.004276056667386108,0.006719517620178169,,,,0.9999518865852018,-0.002915151294176726,-0.003745506055732179,0.008584730165487518
1917686.485083921,-0.04307080679999999,-0.0921236701,9.9708917742,-0.0015271630954950383,-0.004276056667386108,0.006719517620178169,,,,0.9999517733079029,-0.002918245675187074,-0.0037495168373662814,0.008595116290430667
1917686.493308798,-0.044267218100000005,-0.0789631458,9.9577312499,-0.0024434609527920616,-0.004581489286485115,0.0070249502392771765,,,,0.9999514469781463,-0.00292950406350415,-0.0037613161746252806,0.008624047361184967
1917686.501842358,-0.040677984199999996,-0.0801595571,9.9529456047,-0.0012217304763960308,-0.003665191429188092,0.0070249502392771765,,,,0.9999511369422294,-0.0029361029735120708,-0.0037696219844839253,0.008654072877319811
1917686.51175993,-0.0490528633,-0.08135596839999999,9.9720881855,-0.0015271630954950383,-0.004276056667386108,0.006414085001079161,,,,0.9999507859108112,-0.0029452057635809157,-0.0037823176316967425,0.008685942245623359
1917686.521923847,-0.0394815729,-0.0849452023,9.9684989516,-0.0012217304763960308,-0.004581489286485115,0.006414085001079161,,,,0.999950422143342,-0.0029533396272123074,-0.003796945164876691,0.00871861501694136
1917686.531799402,-0.0394815729,-0.08853443620000001,9.9601240725,-0.0012217304763960308,-0.004276056667386108,0.006414085001079161,,,,0.9999500722243341,-0.0029614914392201916,-0.003809707952764663,0.008750357268094413
1917686.540324993,-0.0394815729,-0.08853443620000001,9.9529456047,-0.002138028333693054,-0.004581489286485115,0.006414085001079161,,,,0.9999497526048026,-0.0029724131053035507,-0.003822059531517719,0.008777749532949441
1917686.542801106,-0.044267218100000005,-0.08614161359999999,9.9529456047,-0.002138028333693054,-0.004581489286485115,0.006414085001079161,,,,0.999949659837549,-0.0029755209249624805,-0.0038256311155208753,0.008785705012296802
1917686.551022784,-0.040677984199999996,-0.0765703232,9.9493563708,-0.0015271630954950383,-0.004581489286485115,0.006414085001079161,,,,0.9999493606256606,-0.002982812619459122,-0.003837369819939868,0.008812128351018494
1917686.55987869,-0.0550349198,-0.0873380249,9.9708917742,-0.0015271630954950383,-0.004581489286485115,0.007330382858376184,,,,0.9999489997083851,-0.0029911517167340524,-0.003850088498929814,0.008844648786576797
1917686.570032238,-0.0574277424,-0.0849452023,9.9696953629,-0.0015271630954950383,-0.003665191429188092,0.0070249502392771765,,,,0.9999486167960634,-0.003000554451096062,-0.003859984207957882,0.008880369504693423
1917686.580435522,-0.0574277424,-0.0849452023,9.9589276612,-0.0012217304763960308,-0.0039706240482871,0.007330382858376184,,,,0.9999482074458483,-0.0030085823542181428,-0.0038716912780282927,0.008918568534252444
1917686.588620078,-0.0574277424,-0.0849452023,9.9589276612,-0.0012217304763960308,-0.0039706240482871,0.006719517620178169,,,,0.9999479066364652,-0.003014877998973863,-0.003880907075655172,0.008946121185889555
1917686.591831928,-0.0586241537,-0.0789631458,9.9601240725,-0.0015271630954950383,-0.004276056667386108,0.006719517620178169,,,,0.9999477854305373,-0.003017708199315152,-0.003884997340089669,0.008956932815167636
1917686.599649623,-0.0502492746,-0.0933200814,9.9625168951,-0.0015271630954950383,-0.004276056667386108,0.007635815477475192,,,,0.9999474546521356,-0.0030253872823693233,-0.0038951004514621566,0.008986832533215564
1917686.609513946,-0.0466600407,-0.08135596839999999,9.963713306399999,-0.0012217304763960308,-0.004276056667386108,0.0070249502392771765,,,,0.9999470703883099,-0.0030328284136915693,-0.003907684087806635,0.00902155079348852
1917686.618016945,-0.0466600407,-0.08135596839999999,9.9625168951,-0.0015271630954950383,-0.004276056667386108,0.007330382858376184,,,,0.9999467223522849,-0.003040535584977283,-0.003918537060489451,0.009052771265451861
1917686.620505826,-0.044267218100000005,-0.08135596839999999,9.9625168951,-0.0015271630954950383,-0.004276056667386108,0.007330382858376184,,,,0.9999466202489882,-0.0030427948934417704,-0.003921714377251866,0.00906190974385095
1917686.628709231,-0.051445685899999996,-0.0849452023,9.9529456047,-0.001832595714594046,-0.0039706240482871,0.006719517620178169,,,,0.9999463064097558,-0.003051623776945858,-0.003930976593294998,0.009089516644680513
1917686.637266407,-0.051445685899999996,-0.0849452023,9.9529456047,-0.001832595714594046,-0.0039706240482871,0.007330382858376184,,,,0.9999459542575504,-0.0030608320183040326,-0.00394062802344468,0.009120927699178038
1917686.64036126,-0.047856452,-0.0825523797,9.9529456047,-0.001832595714594046,-0.0039706240482871,0.007330382858376184,,,,0.9999458267613289,-0.0030641222390884785,-0.003944111275064456,0.009132287980355095
1917686.647267342,-0.0382851616,-0.0789631458,9.9684989516,-0.002138028333693054,-0.0039706240482871,0.007330382858376184,,,,0.9999455388783324,-0.00307240989323891,-0.003951875573969851,0.009157633658170482
1917686.657464188,-0.0538385085,-0.08853443620000001,9.963713306399999,-0.0015271630954950383,-0.004581489286485115,0.0070249502392771765,,,,0.9999451222234683,-0.0030819543086357173,-0.0039665140080015066,0.009193523032921735
1917686.667943891,-0.044267218100000005,-0.08135596839999999,9.9529456047,-0.001832595714594046,-0.004581489286485115,0.007330382858376184,,,,0.9999446741112155,-0.0030929866746517557,-0.003981495926810729,0.009232000879027926
1917686.676020252,-0.044267218100000005,-0.08135596839999999,9.9529456047,-0.001832595714594046,-0.004886921905584123,0.006719517620178169,,,,0.9999443454921129,-0.0031014527963595783,-0.003994280473716626,0.009259191778951324
1917686.678711412,-0.041874395499999995,-0.0789631458,9.9589276612,-0.0015271630954950383,-0.004886921905584123,0.006719517620178169,,,,0.9999442372107408,-0.003103820151490453,-0.003998530042701024,0.0092682537187293
1917686.685719353,-0.041874395499999995,-0.0789631458,9.9589276612,-0.0015271630954950383,-0.004581489286485115,0.006719517620178169,,,,0.9999439590444064,-0.0031099918621762114,-0.004008525577826246,0.009291848250368643
1917686.688308718,-0.04307080679999999,-0.0741775006,9.9577312499,-0.0015271630954950383,-0.004581489286485115,0.006719517620178169,,,,0.9999438564232364,-0.0031121804149867754,-0.004012207426406877,0.009300565899886724
1917686.696048267,-0.0502492746,-0.08374879099999999,9.964909717700001,-0.0015271630954950383,-0.004276056667386108,0.007330382858376184,,,,0.9999435301844158,-0.0031191874184011256,-0.004022084194842592,0.009328984452052321
1917686.706181047,-0.0490528633,-0.0873380249,9.9708917742,-0.0012217304763960308,-0.004276056667386108,0.006719517620178169,,,,0.9999431345346128,-0.003127034073320312,-0.0040350533986337955,0.00936310306831303
1917686.715920854,-0.045463629400000004,-0.0693918554,9.954142016,-0.0012217304763960308,-0.0039706240482871,0.006414085001079161,,,,0.999942777132787,-0.003133439461980925,-0.004045889037530223,0.009394402535746475
1917686.724558096,-0.045463629400000004,-0.0693918554,9.954142016,-0.001832595714594046,-0.004276056667386108,0.007330382858376184,,,,0.9999424083378188,-0.0031417527843899,-0.0040568289045288305,0.009426109284540712
1917686.727044002,-0.0502492746,-0.08614161359999999,9.9577312499,-0.001832595714594046,-0.004276056667386108,0.007330382858376184,,,,0.999942301001061,-0.0031444099763513473,-0.004060009661485548,0.009435235882205248
1917686.735031047,-0.0490528633,-0.08135596839999999,9.964909717700001,-0.001832595714594046,-0.004886921905584123,0.007330382858376184,,,,0.999941946460931,-0.00315268146761649,-0.004072628185451135,0.00946456587231579
1917686.745578209,-0.0490528633,-0.08853443620000001,9.9708917742,-0.001832595714594046,-0.004581489286485115,0.006719517620178169,,,,0.9999415119659354,-0.0031640763884662844,-0.004087773084357258,0.009500072583816306
1917686.755322112,-0.0466600407,-0.0921236701,9.9577312499,-0.001832595714594046,-0.004581489286485115,0.0070249502392771765,,,,0.9999410939468051,-0.00317485027900874,-0.004101812088990656,0.00953436415076088
1917686.764037117,-0.0466600407,-0.0825523797,9.9589276612,-0.0015271630954950383,-0.004276056667386108,0.0070249502392771765,,,,0.9999407307451285,-0.0031826128201991183,-0.004112917747413839,0.009565034246586699
1917686.77377254,-0.040677984199999996,-0.0849452023,9.966106129,-0.0012217304763960308,-0.004276056667386108,0.006719517620178169,,,,0.9999403419121461,-0.0031899928343742502,-0.0041253479194637,0.00959781573486166
1917686.784124718,-0.045463629400000004,-0.0873380249,9.963713306399999,-0.001832595714594046,-0.004886921905584123,0.006719517620178169,,,,0.9999399034487858,-0.0032010667586474285,-0.004141775210000097,0.009632671516746799
1917686.793785707,-0.041874395499999995,-0.08374879099999999,9.9589276612,-0.001832595714594046,-0.004581489286485115,0.0070249502392771765,,,,0.9999394855051746,-0.003211214386926921,-0.0041555888051226135,0.009666670134571549
1917686.803204127,-0.045463629400000004,-0.0741775006,9.9517491934,-0.0012217304763960308,-0.004886921905584123,0.006719517620178169,,,,0.9999390963207535,-0.0032175618937680846,-0.0041703900072800615,0.00969839120069935
1917686.8128743,-0.041874395499999995,-0.0789631458,9.9589276612,-0.0012217304763960308,-0.004581489286485115,0.006719517620178169,,,,0.9999387004009103,-0.0032244167730308823,-0.004184143581723987,0.009730956761799707
1917686.823195021,-0.0526420972,-0.0849452023,9.9577312499,-0.0012217304763960308,-0.004886921905584123,0.006719517620178169,,,,0.9999382686490099,-0.0032320145789556543,-0.004200440054103315,0.009765719447836512
1917686.832853706,-0.0526420972,-0.0777667345,9.9589276612,-0.0012217304763960308,-0.004581489286485115,0.0070249502392771765,,,,0.9999378566768148,-0.0032386981866103924,-0.004214153405879841,0.00979972089936968
1917686.841569383,-0.0466600407,-0.08135596839999999,9.9577312499,-0.0015271630954950383,-0.004886921905584123,0.006719517620178169,,,,0.9999374860067991,-0.003246269978684188,-0.004227903107823021,0.009829071417939093
1917686.851160705,-0.047856452,-0.08374879099999999,9.9529456047,-0.0012217304763960308,-0.004276056667386108,0.006719517620178169,,,,0.9999370935031504,-0.00325329596524691,-0.004240108771245887,0.009861368030977423
1917686.861586038,-0.051445685899999996,-0.0777667345,9.9625168951,-0.0012217304763960308,-0.004581489286485115,0.006719517620178169,,,,0.9999366603787189,-0.0032604750750654635,-0.0042549128263477416,0.009896476634634764
1917686.871218706,-0.051445685899999996,-0.0825523797,9.9732845968,-0.0015271630954950383,-0.004886921905584123,0.0070249502392771765,,,,0.9999362321078037,-0.003268845888193272,-0.004270103958885915,0.009930386537697018
1917686.879859436,-0.051445685899999996,-0.0825523797,9.9732845968,-0.0015271630954950383,-0.004581489286485115,0.0070249502392771765,,,,0.9999358523985487,-0.0032763564849281586,-0.0042824097664827185,0.009960800307385166
1917686.882362686,-0.040677984199999996,-0.0765703232,9.9625168951,-0.0015271630954950383,-0.004581489286485115,0.0070249502392771765,,,,0.9999357424933658,-0.003278450734848315,-0.004285965635426344,0.009969611005066659
1917686.890314019,-0.045463629400000004,-0.0921236701,9.9613204838,-0.0015271630954950383,-0.004581489286485115,0.007635815477475192,,,,0.9999353653913552,-0.003285890588442347,-0.004297369920653543,0.010000028723099854
1917686.900787066,-0.0538385085,-0.0825523797,9.9601240725,-0.0015271630954950383,-0.004886921905584123,0.007330382858376184,,,,0.9999348790824416,-0.0032949458108307984,-0.004313874261211368,0.010038496667580896
1917686.910453078,-0.040677984199999996,-0.0801595571,9.9601240725,-0.0015271630954950383,-0.004581489286485115,0.006414085001079161,,,,0.9999344798832106,-0.0033032284449420655,-0.004327636666411,0.010069567191152125
1917686.91902219,-0.040677984199999996,-0.0873380249,9.9589276612,-0.0015271630954950383,-0.004581489286485115,0.0079412480965742,,,,0.9999340572746311,-0.0033110002970025646,-0.004339874328440931,0.01010365627588841
1917686.928578727,-0.040677984199999996,-0.0873380249,9.9589276612,-0.002138028333693054,-0.004276056667386108,0.006414085001079161,,,,0.9999336550379495,-0.0033225568748445,-0.004352114268165811,0.010134359360971316
1917686.931682445,-0.04307080679999999,-0.08374879099999999,9.966106129,-0.002138028333693054,-0.004276056667386108,0.006414085001079161,,,,0.9999335244898166,-0.0033262229764968562,-0.00435607589870292,0.010144330675237428
1917686.938409161,-0.045463629400000004,-0.0921236701,9.9601240725,-0.0015271630954950383,-0.004581489286485115,0.006414085001079161,,,,0.9999332420627063,-0.003332446925835286,-0.004365726565083701,0.010165955292582785
1917686.94930171,-0.041874395499999995,-0.0777667345,9.9589276612,-0.001832595714594046,-0.004581489286485115,0.006414085001079161,,,,0.9999327818855467,-0.0033431965597014845,-0.0043812260132604615,0.010200961033932861
1917686.958700865,-0.0299102825,-0.0777667345,9.964909717700001,-0.0012217304763960308,-0.004276056667386108,0.006414085001079161,,,,0.9999323992714128,-0.0033496643292015116,-0.004393140417232405,0.010231175566485454
1917686.968568708,-0.041874395499999995,-0.0765703232,9.9684989516,-0.0015271630954950383,-0.004276056667386108,0.007330382858376184,,,,0.9999319455372666,-0.0033578209873990393,-0.004405634969859549,0.010267410227793984
1917686.977263873,-0.0490528633,-0.0789631458,9.9589276612,-0.0012217304763960308,-0.00519235452468313,0.006719517620178169,,,,0.999931558292524,-0.0033637260618649663,-0.0044206318115862465,0.01029670296997301
1917686.987030145,-0.047856452,-0.0729810893,9.9625168951,-0.0006108652381980154,-0.004581489286485115,0.005497787143782138,,,,0.9999312083071293,-0.003367001936028653,-0.004434456156981538,0.010323640346264602
1917686.99738338,-0.0466600407,-0.08135596839999999,9.9720881855,-0.000916297857297023,-0.0039706240482871,0.006414085001079161,,,,0.9999307938234865,-0.003372659082655878,-0.004445992811491707,0.010356924358347003
1917687.007238294,-0.0526420972,-0.08614161359999999,9.9696953629,-0.001832595714594046,-0.004581489286485115,0.0070249502392771765,,,,0.999930337181951,-0.0033827841227671287,-0.004460050715795304,0.010391607304988565
1917687.015754413,-0.0526420972,-0.08614161359999999,9.9696953629,-0.0012217304763960308,-0.004276056667386108,0.007330382858376184,,,,0.9999299424924054,-0.003388939596472189,-0.004470865240294949,0.010422886334865936
1917687.018274784,-0.0538385085,-0.08135596839999999,9.964909717700001,-0.0012217304763960308,-0.004276056667386108,0.007330382858376184,,,,0.9999298257682228,-0.003390684889699143,-0.004474056745798813,0.0104321431808605
1917687.026342408,-0.0538385085,-0.08374879099999999,9.966106129,-0.0012217304763960308,-0.004276056667386108,0.006719517620178169,,,,0.9999294768017447,-0.0033963741790712927,-0.004484293432524067,0.010459310581289507
1917687.036521813,-0.0490528633,-0.0873380249,9.9625168951,-0.0012217304763960308,-0.004581489286485115,0.006719517620178169,,,,0.9999290272342684,-0.003403787121440491,-0.004498797241620809,0.010493595710751855
1917687.046421209,-0.04307080679999999,-0.08135596839999999,9.963713306399999,-0.0015271630954950383,-0.00519235452468313,0.007635815477475192,,,,0.9999285234681172,-0.0034121535616475906,-0.004515882593494174,0.010531475079235526
1917687.054800203,-0.04307080679999999,-0.08135596839999999,9.9613204838,-0.0012217304763960308,-0.004276056667386108,0.006108652381980153,,,,0.9999281850312277,-0.0034179568919934984,-0.004526512615835497,0.010557131920076759
1917687.057282429,-0.0394815729,-0.0897308475,9.9613204838,-0.0012217304763960308,-0.004276056667386108,0.006108652381980153,,,,0.9999280840448673,-0.003419815976078175,-0.004529680963406875,0.010564733192109823
1917687.065246849,-0.047856452,-0.08135596839999999,9.954142016,-0.0012217304763960308,-0.004276056667386108,0.006719517620178169,,,,0.9999277357289975,-0.0034253144308801593,-0.004539773764238383,0.010591553006966846
1917687.075632469,-0.044267218100000005,-0.0705882667,9.9565348386,-0.0015271630954950383,-0.004276056667386108,0.007635815477475192,,,,0.9999272268955282,-0.0034333808785090734,-0.004552892137805707,0.01063127376863196
1917687.083710782,-0.044267218100000005,-0.0705882667,9.9565348386,-0.0015271630954950383,-0.004276056667386108,0.006719517620178169,,,,0.9999268693364873,-0.0034396295160989032,-0.004563108606821027,0.010658469288114782
1917687.086841892,-0.0502492746,-0.08374879099999999,9.9684989516,-0.0015271630954950383,-0.004276056667386108,0.006719517620178169,,,,0.9999267295697907,-0.0034422998000169574,-0.00456708478960432,0.010669011222898657
1917687.093508638,-0.0502492746,-0.08374879099999999,9.9684989516,-0.001832595714594046,-0.004581489286485115,0.006414085001079161,,,,0.9999264342569952,-0.003448985335793751,-0.004576582987874087,0.010690437895594297
1917687.096017073,-0.04307080679999999,-0.0741775006,9.9696953629,-0.001832595714594046,-0.004581489286485115,0.006414085001079161,,,,0.9999263235509687,-0.0034513547649080807,-0.004580145458512224,0.010698499320430746
1917687.104188956,-0.0466600407,-0.0801595571,9.9601240725,-0.0015271630954950383,-0.004581489286485115,0.006719517620178169,,,,0.9999259520963945,-0.0034581348660264527,-0.004591753278548326,0.010726016464490135
1917687.113307271,-0.041874395499999995,-0.0741775006,9.9601240725,-0.0015271630954950383,-0.004886921905584123,0.006719517620178169,,,,0.9999255314098662,-0.003465341591917267,-0.004606075540463284,0.010756723965211963
1917687.123140584,-0.047856452,-0.08374879099999999,9.9625168951,-0.001832595714594046,-0.0039706240482871,0.006414085001079161,,,,0.999925106006729,-0.0034752188875482207,-0.004617080351272472,0.010788317762536543
1917687.133498204,-0.0538385085,-0.0789631458,9.9565348386,-0.0012217304763960308,-0.004581489286485115,0.006108652381980153,,,,0.9999246714403991,-0.003482076759667178,-0.0046317757557605,0.010820038798367865
1917687.143396128,-0.044267218100000005,-0.08374879099999999,9.964909717700001,-0.0015271630954950383,-0.004581489286485115,0.006719517620178169,,,,0.9999242156165951,-0.003490478197771376,-0.004645853863644369,0.010853369401518233
1917687.151905366,-0.044267218100000005,-0.08374879099999999,9.9625168951,-0.0012217304763960308,-0.0039706240482871,0.0070249502392771765,,,,0.9999238251850627,-0.0034964260191267787,-0.004655338301374371,0.010883320158149997
1917687.154397928,-0.0502492746,-0.08374879099999999,9.9625168951,-0.0012217304763960308,-0.0039706240482871,0.0070249502392771765,,,,0.9999237106680107,-0.003498157438913278,-0.004658115379779189,0.010892093442392533
1917687.162399342,-0.041874395499999995,-0.0825523797,9.9684989516,-0.0015271630954950383,-0.004276056667386108,0.006414085001079161,,,,0.9999233592675583,-0.0035048862411400194,-0.004668271168763212,0.010917811493756866
1917687.17273552,-0.0550349198,-0.0741775006,9.9625168951,-0.000916297857297023,-0.0039706240482871,0.006414085001079161,,,,0.9999229248700994,-0.003509853623458434,-0.004679738759336435,0.010951040677118115
1917687.180843945,-0.0550349198,-0.0741775006,9.9625168951,-0.0012217304763960308,-0.004581489286485115,0.006414085001079161,,,,0.9999225672675999,-0.0035149562192052803,-0.004691224514967772,0.010977110926808295
1917687.183952399,-0.0370887503,-0.0921236701,9.955338427300001,-0.0012217304763960308,-0.004581489286485115,0.006414085001079161,,,,0.999922428436623,-0.0035172873014270704,-0.004695666286872288,0.01098710687888582
1917687.19070766,-0.0370887503,-0.0921236701,9.966106129,-0.0015271630954950383,-0.004276056667386108,0.0070249502392771765,,,,0.9999221048314457,-0.0035233990042384147,-0.004704290445393302,0.011010884629016386
1917687.193175997,-0.047856452,-0.0765703232,9.966106129,-0.0015271630954950383,-0.004276056667386108,0.0070249502392771765,,,,0.9999219874878452,-0.0035253708923383884,-0.004707412833823805,0.011019571808426831
1917687.201169219,-0.040677984199999996,-0.08135596839999999,9.9625168951,-0.0015271630954950383,-0.004276056667386108,0.007330382858376184,,,,0.9999215923787041,-0.003532022870996798,-0.004717537375843782,0.01104892530443342
1917687.209856991,-0.040677984199999996,-0.08135596839999999,9.9625168951,-0.0015271630954950383,-0.004886921905584123,0.007330382858376184,,,,0.9999211492757412,-0.0035392150067814726,-0.004731194247621742,0.011080838831428928
1917687.212322992,-0.04307080679999999,-0.0753739119,9.9601240725,-0.001832595714594046,-0.004886921905584123,0.007330382858376184,,,,0.99992102232247,-0.003541534371030331,-0.0047350687494921275,0.011089895212433422
1917687.220274388,-0.040677984199999996,-0.0801595571,9.966106129,-0.001832595714594046,-0.004886921905584123,0.0070249502392771765,,,,0.9999206248317649,-0.0035492513769274617,-0.004747579902355215,0.011117883601970805
1917687.230687241,-0.047856452,-0.0849452023,9.9625168951,-0.002138028333693054,-0.004581489286485115,0.007330382858376184,,,,0.999920085884458,-0.003561237373999216,-0.004762409654986156,0.011156114353229073
1917687.240548012,-0.0466600407,-0.0765703232,9.964909717700001,-0.001832595714594046,-0.004276056667386108,0.006719517620178169,,,,0.9999196221581567,-0.003570566891011629,-0.004774903118091564,0.01118930629569937
1917687.248951103,-0.0466600407,-0.0765703232,9.964909717700001,-0.0015271630954950383,-0.004581489286485115,0.007330382858376184,,,,0.9999191956145205,-0.003577221633195768,-0.004786808938540706,0.011220168768037187
1917687.251443825,-0.0502492746,-0.0789631458,9.964909717700001,-0.0015271630954950383,-0.004581489286485115,0.007330382858376184,,,,0.9999190687404259,-0.003579227622549079,-0.004790342297419075,0.011229324092709615
1917687.25943727,-0.044267218100000005,-0.071784678,9.9684989516,-0.000916297857297023,-0.004581489286485115,0.006108652381980153,,,,0.9999187262498201,-0.0035828468407298635,-0.004801651789640775,0.01125381017897355
1917687.268533888,-0.045463629400000004,-0.0849452023,9.9696953629,-0.0015271630954950383,-0.0039706240482871,0.006719517620178169,,,,0.999918304783109,-0.003590522545197034,-0.004811804212866327,0.011284433868970375
1917687.278403203,-0.0490528633,-0.0693918554,9.9577312499,-0.0015271630954950383,-0.0039706240482871,0.007635815477475192,,,,0.9999177987457357,-0.003597924929248204,-0.0048227607882580185,0.011322175853831804
1917687.288742838,-0.040677984199999996,-0.0873380249,9.9589276612,-0.0012217304763960308,-0.004276056667386108,0.0070249502392771765,,,,0.9999172962710673,-0.003605226787312217,-0.004835874109217399,0.011358577348006738
1917687.298673883,-0.0502492746,-0.0765703232,9.966106129,-0.0015271630954950383,-0.004276056667386108,0.006719517620178169,,,,0.9999168268472999,-0.0036130420645725694,-0.004848437235015002,0.011392013476324712
1917687.307208466,-0.0502492746,-0.0765703232,9.9625168951,-0.0012217304763960308,-0.0039706240482871,0.006719517620178169,,,,0.9999164334393656,-0.003618462825295386,-0.00485791541875609,0.011420749645488525
1917687.309679267,-0.041874395499999995,-0.0897308475,9.9625168951,-0.0012217304763960308,-0.0039706240482871,0.006719517620178169,,,,0.9999163185356705,-0.0036202366637448397,-0.00486067640181893,0.011429069843461254
1917687.317670249,-0.0502492746,-0.0741775006,9.9673025403,-0.0015271630954950383,-0.004276056667386108,0.0070249502392771765,,,,0.9999159251882935,-0.0036264016679313682,-0.00487077741468769,0.01145719394783971
1917687.32796537,-0.051445685899999996,-0.08135596839999999,9.9673025403,-0.002138028333693054,-0.004581489286485115,0.0070249502392771765,,,,0.9999153962763366,-0.003637896593146596,-0.00488541675262806,0.011493419903029508
1917687.336077731,-0.051445685899999996,-0.08135596839999999,9.9673025403,-0.002138028333693054,-0.004581489286485115,0.006414085001079161,,,,0.9999150069267728,-0.0036469303373071384,-0.004896960516239787,0.011519487811929253
1917687.339174057,-0.047856452,-0.0705882667,9.964909717700001,-0.0012217304763960308,-0.004581489286485115,0.006414085001079161,,,,0.9999148640279768,-0.003648759732134413,-0.004901344911143018,0.011529443455431011
1917687.345931686,-0.047856452,-0.0705882667,9.964909717700001,-0.0015271630954950383,-0.004581489286485115,0.0070249502392771765,,,,0.9999145241246981,-0.0036537928705829134,-0.004910918090725008,0.011553230095682711
1917687.348402935,-0.0526420972,-0.0873380249,9.9577312499,-0.0015271630954950383,-0.004581489286485115,0.0070249502392771765,,,,0.9999143987058386,-0.0036558741284366866,-0.004914429833271599,0.01156192996484874
1917687.356358459,-0.0466600407,-0.0753739119,9.9601240725,-0.0015271630954950383,-0.004276056667386108,0.006414085001079161,,,,0.999914030681955,-0.0036620255145969607,-0.004924495212514544,0.011587500222175882
1917687.366760528,-0.040677984199999996,-0.0789631458,9.9625168951,-0.001832595714594046,-0.004276056667386108,0.006414085001079161,,,,0.9999135415577034,-0.0036718864302865096,-0.004937682202910948,0.011620927417261336
1917687.375083648,-0.040677984199999996,-0.0789631458,9.9625168951,-0.0015271630954950383,-0.004276056667386108,0.006719517620178169,,,,0.9999131391020063,-0.0036785007817340177,-0.004948213700653969,0.01164895121216379
1917687.378247976,-0.047856452,-0.08614161359999999,9.9577312499,-0.0015271630954950383,-0.004276056667386108,0.006719517620178169,,,,0.9999129853236742,-0.003681143879337583,-0.004952226455230562,0.011659606081397147
1917687.384559062,-0.047856452,-0.08614161359999999,9.9577312499,-0.0015271630954950383,-0.004276056667386108,0.007330382858376184,,,,0.9999126557040338,-0.0036864226695076927,-0.004960222376283449,0.011682784119637298
1917687.387031431,-0.0538385085,-0.071784678,9.9673025403,-0.000916297857297023,-0.004276056667386108,0.007330382858376184,,,,0.9999125300282062,-0.003687523221419913,-0.0049633369784606455,0.011691866879217711
1917687.395230516,-0.0490528633,-0.0849452023,9.9625168951,-0.0012217304763960308,-0.004276056667386108,0.006719517620178169,,,,0.9999121348211273,-0.0036930455279668996,-0.004973713359173873,0.011719480688371078
1917687.40539216,-0.0526420972,-0.0849452023,9.9673025403,-0.0006108652381980154,-0.003665191429188092,0.006108652381980153,,,,0.9999117072918225,-0.0036967827515123493,-0.004983443157143854,0.011750604764876613
1917687.413660815,-0.0526420972,-0.0849452023,9.9673025403,-0.0006108652381980154,-0.003665191429188092,0.006719517620178169,,,,0.999911328884801,-0.0036998319799006942,-0.004991350729543796,0.01177845614019303
1917687.417263333,-0.045463629400000004,-0.08135596839999999,9.9577312499,-0.0006108652381980154,-0.004276056667386108,0.006719517620178169,,,,0.9999111585325974,-0.0037010802515070602,-0.004995891602311724,0.011790594305165433
1917687.425047268,-0.0526420972,-0.0705882667,9.9493563708,-0.0012217304763960308,-0.004581489286485115,0.0070249502392771765,,,,0.9999107629798385,-0.003705651808676827,-0.0050069052325713796,0.011817999904472342
1917687.433232304,-0.0526420972,-0.0705882667,9.9493563708,-0.0012217304763960308,-0.004886921905584123,0.0070249502392771765,,,,0.9999103398218893,-0.003710439919866769,-0.005019736331888337,0.011846822360172414
1917687.436221329,-0.044267218100000005,-0.08135596839999999,9.963713306399999,-0.0012217304763960308,-0.004886921905584123,0.0070249502392771765,,,,0.99991018431451,-0.003712375579003105,-0.005024425614177185,0.011857348731094524
1917687.443972911,-0.0466600407,-0.08135596839999999,9.955338427300001,-0.0015271630954950383,-0.004581489286485115,0.0070249502392771765,,,,0.9999097819687294,-0.003718589362685294,-0.005035416694809995,0.011884636936379074
1917687.454107707,-0.0466600407,-0.0825523797,9.9589276612,-0.0015271630954950383,-0.004581489286485115,0.0070249502392771765,,,,0.9999092543044875,-0.003726775460422787,-0.005049790573195931,0.011920315267569133
1917687.463749303,-0.047856452,-0.0741775006,9.9625168951,-0.0015271630954950383,-0.004276056667386108,0.0070249502392771765,,,,0.9999087602779504,-0.003734089944313905,-0.005061976702545225,0.011954249602678371
1917687.472451251,-0.0490528633,-0.08614161359999999,9.9720881855,-0.0015271630954950383,-0.004276056667386108,0.0070249502392771765,,,,0.9999083108447727,-0.003741286656295575,-0.005073000568693152,0.011984879763217377
1917687.482071854,-0.0346959277,-0.08374879099999999,9.9625168951,-0.0015271630954950383,-0.004886921905584123,0.007330382858376184,,,,0.9999077804438607,-0.003749124757761448,-0.005088113937816938,0.012020223289882549
1917687.492539269,-0.0370887503,-0.0693918554,9.9625168951,-0.0015271630954950383,-0.00519235452468313,0.006719517620178169,,,,0.9999072357845996,-0.003756647163374834,-0.005106150636064001,0.012055482295321978
1917687.502342726,-0.044267218100000005,-0.0849452023,9.9589276612,-0.0015271630954950383,-0.004886921905584123,0.006414085001079161,,,,0.9999067463324154,-0.0037646288730728466,-0.00512156939656882,0.012087006878750013
1917687.510960704,-0.044267218100000005,-0.0849452023,9.9589276612,-0.001832595714594046,-0.004581489286485115,0.005803219762881146,,,,0.9999063487129889,-0.003772954350732232,-0.00513383279268824,0.012112075783391602
1917687.513457298,-0.035892339,-0.0765703232,9.964909717700001,-0.001832595714594046,-0.004581489286485115,0.005803219762881146,,,,0.999906233884036,-0.0037752382485460767,-0.005137379999976264,0.012119337553932389
1917687.521441847,-0.044267218100000005,-0.0789631458,9.9625168951,-0.0015271630954950383,-0.004276056667386108,0.006719517620178169,,,,0.9999058321867393,-0.00378146912337602,-0.0051474791253449175,0.01214622199976023
1917687.531935791,-0.0538385085,-0.08614161359999999,9.954142016,-0.0015271630954950383,-0.004276056667386108,0.006719517620178169,,,,0.9999053012537197,-0.0037900650910812185,-0.005160773220231173,0.0121815578266005
1917687.541774449,-0.056231331100000004,-0.0777667345,9.9625168951,-0.001832595714594046,-0.004276056667386108,0.006719517620178169,,,,0.9999047983470317,-0.003799152325889565,-0.005173233547252656,0.012214677189851503
1917687.550233478,-0.045463629400000004,-0.0658026215,9.9696953629,-0.001832595714594046,-0.004276056667386108,0.0070249502392771765,,,,0.9999043513405418,-0.0038063684041107983,-0.005183955319740953,0.012244441067915989
1917687.560098377,-0.0574277424,-0.08374879099999999,9.9684989516,-0.0012217304763960308,-0.004276056667386108,0.007635815477475192,,,,0.9999037993351606,-0.0038127901068023486,-0.005196405591440379,0.012282185295852842
1917687.569248404,-0.0574277424,-0.08374879099999999,9.9684989516,-0.0015271630954950383,-0.004886921905584123,0.006719517620178169,,,,0.9999033176407742,-0.0038200803744116653,-0.0052107808464298515,0.01231300612671618
1917687.572816105,-0.04307080679999999,-0.0825523797,9.9481599595,-0.0015271630954950383,-0.004886921905584123,0.006719517620178169,,,,0.9999031295481732,-0.0038229099004278046,-0.005216385264749172,0.012325023506354183
1917687.579588007,-0.059820565,-0.08374879099999999,9.9625168951,-0.0015271630954950383,-0.004581489286485115,0.006719517620178169,,,,0.9999027773645287,-0.0038283082394557906,-0.005225989743157138,0.012347830008953252
1917687.589868823,-0.0334995164,-0.0777667345,9.9720881855,-0.0012217304763960308,-0.003665191429188092,0.0070249502392771765,,,,0.9999022540902055,-0.003834663075010779,-0.005235824941128532,0.01238401233902553
1917687.599595286,-0.041874395499999995,-0.0849452023,9.9625168951,-0.0012217304763960308,-0.0039706240482871,0.007330382858376184,,,,0.9999017297624737,-0.0038410782657672792,-0.005246624976581197,0.012419736797711203
1917687.609375382,-0.047856452,-0.0765703232,9.964909717700001,-0.001832595714594046,-0.004581489286485115,0.007330382858376184,,,,0.9999011759154198,-0.0038499828399746363,-0.005260492117606079,0.012455651639843841
1917687.619124181,-0.047856452,-0.0765703232,9.954142016,-0.0012217304763960308,-0.004276056667386108,0.006414085001079161,,,,0.9999006974252945,-0.0038558711193978495,-0.005272806312356625,0.012486995631963257
1917687.627322593,-0.047856452,-0.0765703232,9.954142016,-0.0012217304763960308,-0.004581489286485115,0.006719517620178169,,,,0.9999002718643591,-0.0038608082294704004,-0.005284409195224904,0.01251461165411687
1917687.630143326,-0.0526420972,-0.0777667345,9.963713306399999,-0.0012217304763960308,-0.004581489286485115,0.006719517620178169,,,,0.9999001251669949,-0.0038625235734793518,-0.005288401364404216,0.012524113289225603
1917687.638183237,-0.0370887503,-0.0873380249,9.9673025403,-0.0012217304763960308,-0.0039706240482871,0.0070249502392771765,,,,0.9998997020984052,-0.00386791634911444,-0.005297340009073202,0.01255241631978438
1917687.647725789,-0.0490528633,-0.0933200814,9.9613204838,-0.000916297857297023,-0.004581489286485115,0.007330382858376184,,,,0.9998991693855334,-0.0038731061067200927,-0.005310865249693922,0.012587486703320801
1917687.657318103,-0.0550349198,-0.0825523797,9.9589276612,-0.001832595714594046,-0.00519235452468313,0.0070249502392771765,,,,0.9998986208528607,-0.003882078261315031,-0.005327407603105199,0.012621260362998902
1917687.667285245,-0.0490528633,-0.071784678,9.9565348386,-0.0012217304763960308,-0.004886921905584123,0.007635815477475192,,,,0.999898033150627,-0.003887785969645386,-0.005343022242265165,0.012659405005001755
1917687.677379624,-0.045463629400000004,-0.0849452023,9.976873830699999,-0.0012217304763960308,-0.004581489286485115,0.006719517620178169,,,,0.9998975001826278,-0.003894301188167,-0.005357320392445096,0.012693410298275344
1917687.68568572,-0.045463629400000004,-0.0849452023,9.976873830699999,-0.0015271630954950383,-0.0039706240482871,0.006719517620178169,,,,0.9998970692799851,-0.0039009556747604643,-0.005366564572660431,0.01272137472160952
1917687.688234059,-0.0526420972,-0.0849452023,9.9529456047,-0.0015271630954950383,-0.0039706240482871,0.006719517620178169,,,,0.9998969369076448,-0.0039029941645356654,-0.0053694005592169886,0.012729954316323122
1917687.696110765,-0.0466600407,-0.071784678,9.964909717700001,-0.001832595714594046,-0.0039706240482871,0.006719517620178169,,,,0.9998965248656635,-0.003909911249406151,-0.005378177382461639,0.012756463602196875
1917687.706130325,-0.0502492746,-0.0753739119,9.9673025403,-0.001832595714594046,-0.004276056667386108,0.0070249502392771765,,,,0.999895970935623,-0.003918899590631857,-0.005390861131990796,0.012791721891989613
1917687.715965559,-0.0526420972,-0.0753739119,9.9732845968,-0.0015271630954950383,-0.0039706240482871,0.006719517620178169,,,,0.9998954590617608,-0.003926222933880702,-0.005401796482349079,0.012824832003090219
1917687.724450285,-0.0526420972,-0.0753739119,9.9732845968,-0.0015271630954950383,-0.004581489286485115,0.007330382858376184,,,,0.9998949691403566,-0.0039325146501844035,-0.005413811421019394,0.012855997130874375
1917687.727686423,-0.051445685899999996,-0.0789631458,9.964909717700001,-0.0015271630954950383,-0.004581489286485115,0.007330382858376184,,,,0.9998947817281129,-0.003934976495892349,-0.005418393805162871,0.012867884108835614
1917687.735896612,-0.041874395499999995,-0.0777667345,9.9613204838,-0.0015271630954950383,-0.004581489286485115,0.007330382858376184,,,,0.9998943057461576,-0.003941161466325909,-0.005430019247297678,0.012898041466828065
1917687.744403866,-0.045463629400000004,-0.0753739119,9.9565348386,-0.0012217304763960308,-0.0039706240482871,0.0070249502392771765,,,,0.9998938479284794,-0.003946179675624844,-0.005439456589542083,0.01292798718892898
1917687.754232796,-0.047856452,-0.0801595571,9.955338427300001,-0.0012217304763960308,-0.004276056667386108,0.007330382858376184,,,,0.9998932890295747,-0.003952228820080013,-0.0054518547282723364,0.012964093527697059
1917687.764554702,-0.044267218100000005,-0.08614161359999999,9.9613204838,-0.0012217304763960308,-0.004276056667386108,0.006108652381980153,,,,0.9998927810057522,-0.00395889015919691,-0.0054649110375844115,0.012995708085423897
1917687.77445445,-0.044267218100000005,-0.0789631458,9.964909717700001,-0.000916297857297023,-0.004276056667386108,0.0070249502392771765,,,,0.9998922412629396,-0.003963376020395733,-0.00547738399032494,0.01303057087463234
1917687.784483674,-0.041874395499999995,-0.0825523797,9.9565348386,-0.000916297857297023,-0.004276056667386108,0.0070249502392771765,,,,0.9998916921912415,-0.003968126557535911,-0.005490023347187306,0.01306589079268434
1917687.792620068,-0.041874395499999995,-0.0825523797,9.966106129,-0.0012217304763960308,-0.004581489286485115,0.007635815477475192,,,,0.9998912014154079,-0.003973211674900379,-0.005501525819561783,0.013097027704615268
1917687.795574725,-0.0394815729,-0.0801595571,9.966106129,-0.0012217304763960308,-0.004581489286485115,0.007635815477475192,,,,0.9998910230929524,-0.0039750154058899026,-0.005505702054657078,0.013108334582897667
1917687.8033649,-0.035892339,-0.0849452023,9.9732845968,-0.0015271630954950383,-0.004886921905584123,0.007330382858376184,,,,0.9998905556312062,-0.0039811575050313006,-0.00551792859810058,0.013136955827898958
1917687.813475919,-0.047856452,-0.0777667345,9.9684989516,-0.0015271630954950383,-0.004886921905584123,0.006719517620178169,,,,0.999889989858591,-0.00398868505061125,-0.005533802284630249,0.013171013796537005
1917687.821978213,-0.044267218100000005,-0.0741775006,9.9613204838,-0.0012217304763960308,-0.004581489286485115,0.006719517620178169,,,,0.9998895260703109,-0.003993553006124704,-0.005545838318994959,0.013199654033949501
1917687.831950348,-0.051445685899999996,-0.0801595571,9.964909717700001,-0.0012217304763960308,-0.004276056667386108,0.006719517620178169,,,,0.9998889879753942,-0.003999615321346345,-0.005558428507371745,0.01323324130180907
1917687.842257885,-0.056231331100000004,-0.0705882667,9.9684989516,-0.001832595714594046,-0.004581489286485115,0.0070249502392771765,,,,0.9998883901881557,-0.004008494310682394,-0.0055730627201624125,0.013269518160694107
1917687.850533548,-0.056231331100000004,-0.0705882667,9.9684989516,-0.001832595714594046,-0.004276056667386108,0.006719517620178169,,,,0.9998879329647077,-0.004015625578852923,-0.005583553904696567,0.013297375251082282
1917687.853752726,-0.0574277424,-0.0741775006,9.963713306399999,-0.0015271630954950383,-0.004276056667386108,0.006719517620178169,,,,0.9998877566000818,-0.00401796740864419,-0.005587625931304147,0.013308214591395704
1917687.861554709,-0.0550349198,-0.0825523797,9.9469635482,-0.0015271630954950383,-0.004276056667386108,0.0070249502392771765,,,,0.9998873112990876,-0.004023992853160017,-0.00559748833209688,0.013335678046927042
1917687.871593054,-0.0574277424,-0.0801595571,9.9601240725,-0.0015271630954950383,-0.004276056667386108,0.007330382858376184,,,,0.9998867171245063,-0.004031616412803544,-0.005610169823742865,0.013372545816946309
1917687.880147318,-0.059820565,-0.0753739119,9.9732845968,-0.0015271630954950383,-0.0039706240482871,0.005803219762881146,,,,0.9998863053089929,-0.004037874588219349,-0.0056196988158811354,0.01339742548253483
1917687.889625612,-0.059820565,-0.0753739119,9.9732845968,-0.002138028333693054,-0.0039706240482871,0.006414085001079161,,,,0.9998857975736043,-0.00404771376100586,-0.005630284370527115,0.01342787108268569
1917687.892672144,-0.0466600407,-0.0777667345,9.9744810081,-0.002138028333693054,-0.0039706240482871,0.006414085001079161,,,,0.9998856340216675,-0.004050904369994187,-0.00563368622880934,0.013437657174842526
1917687.90042635,-0.047856452,-0.0825523797,9.9577312499,-0.0015271630954950383,-0.004581489286485115,0.0070249502392771765,,,,0.9998851807087383,-0.004056846082948704,-0.005644671598205908,0.013464957536564676
1917687.910467702,-0.0466600407,-0.0753739119,9.9517491934,-0.001832595714594046,-0.003665191429188092,0.0070249502392771765,,,,0.9998846137806173,-0.004065734773719365,-0.005654320783408378,0.013500280812405762
1917687.920105234,-0.051445685899999996,-0.08135596839999999,9.964909717700001,-0.0015271630954950383,-0.004276056667386108,0.006414085001079161,,,,0.9998840962290488,-0.004073041762475554,-0.00566651365014041,0.013531262397579171
1917687.928449635,-0.051445685899999996,-0.08135596839999999,9.964909717700001,-0.000916297857297023,-0.004276056667386108,0.006719517620178169,,,,0.9998836403240791,-0.004076820487748849,-0.00567703080140881,0.013559375658872014
1917687.93165374,-0.0502492746,-0.0825523797,9.9565348386,-0.000916297857297023,-0.004276056667386108,0.006719517620178169,,,,0.9998834649360137,-0.004078291656125639,-0.005681069383652617,0.013570170793964763
1917687.939458155,-0.0382851616,-0.08374879099999999,9.9601240725,-0.0015271630954950383,-0.004581489286485115,0.006719517620178169,,,,0.9998830204362222,-0.004084293046155351,-0.005692131274197486,0.013596456715177844
1917687.94785027,-0.0382851616,-0.08374879099999999,9.9601240725,-0.0012217304763960308,-0.004581489286485115,0.0070249502392771765,,,,0.9998825293208002,-0.00408946603796213,-0.00570400337986696,0.013626010861805794
1917687.951057191,-0.0526420972,-0.0789631458,9.9613204838,-0.0012217304763960308,-0.004581489286485115,0.0070249502392771765,,,,0.9998823417260869,-0.004091358592228056,-0.005708539779450098,0.013637304088901448
1917687.958883367,-0.0538385085,-0.08374879099999999,9.966106129,-0.0012217304763960308,-0.003665191429188092,0.006719517620178169,,,,0.9998819193032676,-0.004096212966753285,-0.005716030804333871,0.013663655498759784
1917687.967696072,-0.0466600407,-0.0849452023,9.966106129,-0.000916297857297023,-0.0039706240482871,0.006719517620178169,,,,0.9998814402864157,-0.004100369107124583,-0.005725794537177458,0.013693342209492518
1917687.977045146,-0.056231331100000004,-0.0789631458,9.9529456047,-0.0012217304763960308,-0.0039706240482871,0.007635815477475192,,,,0.999880867601252,-0.0041059386002176325,-0.005736152566394003,0.013729108744343074
1917687.987224423,-0.0574277424,-0.0789631458,9.963713306399999,-0.001832595714594046,-0.004276056667386108,0.007330382858376184,,,,0.9998802421608056,-0.004115072300499115,-0.005749033915901888,0.013766485587989763
1917687.996080873,-0.0574277424,-0.0789631458,9.963713306399999,-0.001832595714594046,-0.004276056667386108,0.006719517620178169,,,,0.9998797340141354,-0.004122995235078203,-0.005760252528319324,0.013796300552084842
1917687.998605563,-0.0394815729,-0.08614161359999999,9.964909717700001,-0.001832595714594046,-0.004276056667386108,0.006719517620178169,,,,0.9998795885622673,-0.004125347367991917,-0.005763451347145554,0.013804800404699051
1917688.006928076,-0.044267218100000005,-0.0777667345,9.9708917742,-0.001832595714594046,-0.0039706240482871,0.006719517620178169,,,,0.9998791174557218,-0.004132727129046068,-0.005772724352192179,0.0138328122953169
1917688.0170726,-0.0323031051,-0.08614161359999999,9.9565348386,-0.0015271630954950383,-0.0039706240482871,0.006414085001079161,,,,0.9998785678415636,-0.004140640398981584,-0.005784013504176783,0.013865419430133693
1917688.025270884,-0.0323031051,-0.08614161359999999,9.9565348386,-0.0015271630954950383,-0.003665191429188092,0.007635815477475192,,,,0.9998780604591683,-0.004147073645852334,-0.005791863982786072,0.013896773157565186
1917688.028311208,-0.0346959277,-0.0801595571,9.954142016,-0.0012217304763960308,-0.003665191429188092,0.007635815477475192,,,,0.9998778744122864,-0.004148886234014366,-0.0057947680466105675,0.013908402750547569
1917688.037094439,-0.051445685899999996,-0.095712904,9.9481599595,-0.000916297857297023,-0.004581489286485115,0.007635815477475192,,,,0.9998773150523127,-0.004153462860896756,-0.005807188534514525,0.013942028237169803
1917688.044850277,-0.051445685899999996,-0.095712904,9.9481599595,-0.000916297857297023,-0.004886921905584123,0.0070249502392771765,,,,0.9998768462593904,-0.0041574692221014245,-0.005819349916399126,0.013969356842503654
1917688.04755571,-0.0526420972,-0.08614161359999999,9.9696953629,-0.000916297857297023,-0.004886921905584123,0.0070249502392771765,,,,0.9998766831518491,-0.004158727331204547,-0.0058235846787470565,0.013978889002024398
1917688.055335325,-0.041874395499999995,-0.0753739119,9.964909717700001,-0.000916297857297023,-0.0039706240482871,0.0070249502392771765,,,,0.9998762362272164,-0.004161935708203697,-0.005832202907215794,0.014006281751615534
1917688.065337124,-0.051445685899999996,-0.0741775006,9.9589276612,-0.0015271630954950383,-0.0039706240482871,0.0070249502392771765,,,,0.9998756478183705,-0.004169081101737192,-0.005843327212382608,0.014041481034788054
1917688.074922398,-0.0394815729,-0.0789631458,9.9433743143,-0.0015271630954950383,-0.0039706240482871,0.006414085001079161,,,,0.999875122910003,-0.004176128462015697,-0.005853992844112505,0.01407228853300841
1917688.083568633,-0.0394815729,-0.0789631458,9.9433743143,-0.001832595714594046,-0.004581489286485115,0.006719517620178169,,,,0.9998746088663659,-0.004183769477858714,-0.005866267325824368,0.01410140152431271
1917688.086088075,-0.04307080679999999,-0.0801595571,9.9493563708,-0.001832595714594046,-0.004581489286485115,0.006719517620178169,,,,0.9998744588141268,-0.004186011610406997,-0.005869843706423658,0.014109884932796826
1917688.094725702,-0.047856452,-0.0801595571,9.9696953629,-0.000916297857297023,-0.004276056667386108,0.006719517620178169,,,,0.9998739680538573,-0.004189757172566039,-0.0058807301992804045,0.014138987070940466
1917688.103610313,-0.044267218100000005,-0.09092725880000001,9.9625168951,-0.0012217304763960308,-0.004276056667386108,0.0070249502392771765,,,,0.999873435075972,-0.004195487415329581,-0.005891950205205043,0.014170273021478472
1917688.113306182,-0.0586241537,-0.0669990328,9.9565348386,-0.001832595714594046,-0.004276056667386108,0.006719517620178169,,,,0.9998728656352686,-0.004203514151510742,-0.005904266141123142,0.014202910843525497
1917688.12392925,-0.0526420972,-0.0789631458,9.9565348386,-0.000916297857297023,-0.004581489286485115,0.0070249502392771765,,,,0.9998722256464913,-0.004208036602001904,-0.005919271482672209,0.014240331239221594
1917688.133701794,-0.0526420972,-0.0789631458,9.9816594759,-0.000916297857297023,-0.004276056667386108,0.006719517620178169,,,,0.9998716656601655,-0.004212194768658022,-0.0059315898363892575,0.01427325706382979
1917688.142433952,-0.0502492746,-0.0777667345,9.964909717700001,-0.0012217304763960308,-0.004581489286485115,0.0070249502392771765,,,,0.9998711318374642,-0.00421717649755416,-0.005943945190819852,0.0143040083901448
1917688.152051931,-0.0490528633,-0.0789631458,9.9565348386,-0.0012217304763960308,-0.004276056667386108,0.006414085001079161,,,,0.9998705931945976,-0.004222723009095495,-0.005956096024017914,0.014334936177910944
1917688.162441903,-0.0490528633,-0.0873380249,9.9589276612,-0.0015271630954950383,-0.0039706240482871,0.006719517620178169,,,,0.9998699880717948,-0.004230780959548611,-0.00596765110861639,0.01436991948575578
1917688.172087979,-0.0466600407,-0.0777667345,9.963713306399999,-0.000916297857297023,-0.004581489286485115,0.0070249502392771765,,,,0.9998694007789051,-0.004234784677464661,-0.005981279210070681,0.014403898214724693
1917688.180742566,-0.0466600407,-0.0777667345,9.963713306399999,-0.000916297857297023,-0.004581489286485115,0.007330382858376184,,,,0.9998688536318454,-0.004238381380120898,-0.005993501043303375,0.014435705921767463
1917688.18325676,-0.0382851616,-0.0705882667,9.963713306399999,-0.000916297857297023,-0.004581489286485115,0.007330382858376184,,,,0.999868694884801,-0.004239319877414597,-0.0059970579862973,0.014444945546825969
1917688.191213885,-0.0538385085,-0.0921236701,9.976873830699999,-0.0012217304763960308,-0.004276056667386108,0.0070249502392771765,,,,0.9998682076670872,-0.004244435283595862,-0.006007106024184587,0.014472965934607849
1917688.200644145,-0.047856452,-0.08135596839999999,9.955338427300001,-0.0015271630954950383,-0.004276056667386108,0.006108652381980153,,,,0.9998676879023396,-0.004251394584760699,-0.006019044895237004,0.014501842347220406
1917688.210219115,-0.0346959277,-0.0729810893,9.954142016,-0.001832595714594046,-0.004886921905584123,0.0070249502392771765,,,,0.9998670734503647,-0.0042594259587250905,-0.006034114716199565,0.01453554883370224
1917688.220582206,-0.0550349198,-0.0741775006,9.9601240725,-0.0015271630954950383,-0.004276056667386108,0.007330382858376184,,,,0.9998664090804601,-0.004266734642952268,-0.006047221114140209,0.014573609190219787
1917688.230173368,-0.0394815729,-0.0825523797,9.978070242000001,-0.0015271630954950383,-0.004276056667386108,0.006719517620178169,,,,0.9998658339778405,-0.004273846910276901,-0.006059351006090503,0.014605907769466648
1917688.238778706,-0.0394815729,-0.0825523797,9.978070242000001,-0.0015271630954950383,-0.004886921905584123,0.006719517620178169,,,,0.9998653009996107,-0.004280183038636548,-0.006072862215140612,0.014634897834622967
1917688.24130602,-0.051445685899999996,-0.0789631458,9.9673025403,-0.0012217304763960308,-0.004886921905584123,0.006719517620178169,,,,0.9998651460969046,-0.004281615870827997,-0.006076825672829274,0.014643414079118492
1917688.249288458,-0.04307080679999999,-0.0801595571,9.9601240725,-0.000916297857297023,-0.004886921905584123,0.006719517620178169,,,,0.9998646613247608,-0.004284957855915978,-0.006089325199585902,0.01467031999337598
1917688.259731872,-0.051445685899999996,-0.08614161359999999,9.9684989516,-0.0012217304763960308,-0.004581489286485115,0.0070249502392771765,,,,0.9998640037719152,-0.004291286204099776,-0.006104097037252967,0.014707101117145665
1917688.269493247,-0.0502492746,-0.08614161359999999,9.9708917742,-0.0012217304763960308,-0.004276056667386108,0.007330382858376184,,,,0.9998633748821285,-0.004297224251522866,-0.006116407169435795,0.014742964301319926
1917688.27789957,-0.0502492746,-0.08614161359999999,9.966106129,-0.0012217304763960308,-0.004276056667386108,0.007635815477475192,,,,0.9998628131599729,-0.004302342285311465,-0.006127002889527328,0.014775132699132061
1917688.280395748,-0.056231331100000004,-0.0777667345,9.966106129,-0.0012217304763960308,-0.004276056667386108,0.007635815477475192,,,,0.9998626465790753,-0.004303758727329664,-0.00613015091442044,0.014784684185688401
1917688.288476173,-0.0394815729,-0.0801595571,9.9577312499,-0.000916297857297023,-0.004886921905584123,0.0070249502392771765,,,,0.9998621330738373,-0.004307124365309209,-0.006142799145154202,0.014813154404114143
