timestamp (sec),accel_x (m/s^2),accel_y (m/s^2),accel_z (m/s^2),gyro_x (rad/s),gyro_y (rad/s),gyro_z (rad/s),mag_x (uT),mag_y (uT),mag_z (uT),pose_w,pose_x,pose_y,pose_z
1917300.175931214,0.0,0.0,0.0,0.0,0.0,0.0,,,,1.0,0.0,0.0,0.0
1917300.181467972,-0.27,-0.53,8.83,0.0,-0.002181661564992912,0.002181661564992912,,,,0.9999999981143497,-5.668557201819866e-05,2.28378893883159e-05,6.039666168124932e-06
1917300.198143144,-0.28,-0.5700000000000001,9.47,-0.001090830782496456,-0.002181661564992912,0.0,,,,0.9999999677483316,-0.0002377388796898283,8.914627309740624e-05,6.041767452901268e-06
1917300.209658242,-0.28,-0.56,9.34,-0.001090830782496456,-0.003272492347489368,0.001090830782496456,,,,0.9999999258947575,-0.000362312020500686,0.00012957017109416167,1.2330861483827216e-05
1917300.22314723,-0.28,-0.56,9.35,-0.001090830782496456,-0.002181661564992912,0.0,,,,0.9999998537963974,-0.0005081988777648456,0.00018436024735055245,1.2344377917372842e-05
1917300.227961884,-0.28,-0.56,9.35,0.001090830782496456,-0.001090830782496456,0.002181661564992912,,,,0.9999998244940819,-0.0005550052786190314,0.00020656999165711892,1.760070633367784e-05
1917300.236176522,-0.29,-0.59,9.35,0.001090830782496456,-0.001090830782496456,0.002181661564992912,,,,0.9999997681964411,-0.0006351586648675549,0.00024387422189474427,2.6568748346625347e-05
1917300.255188123,-0.26,-0.55,9.370000000000001,-0.003272492347489368,-0.004363323129985824,0.002181661564992912,,,,0.9999995821441078,-0.0008636009252568275,0.00029607903547418206,4.735247116088116e-05
1917300.258599531,-0.27,-0.55,9.38,-0.001090830782496456,-0.004363323129985824,0.0,,,,0.9999995465226571,-0.0009005852514254279,0.0003060348507697561,4.736407353715505e-05
1917300.269001665,-0.28,-0.54,9.370000000000001,0.0,-0.003272492347489368,0.0,,,,0.9999994330720834,-0.0010064412775785164,0.00034450688440465326,4.7396976113566506e-05
1917300.277495384,-0.28,-0.54,9.370000000000001,-0.001090830782496456,-0.004363323129985824,0.002181661564992912,,,,0.9999993272107305,-0.0010974839369227865,0.0003713386567289067,5.669829459074213e-05
1917300.280893832,-0.26,-0.5700000000000001,9.39,-0.001090830782496456,-0.004363323129985824,0.002181661564992912,,,,0.9999992819853466,-0.0011348038908169564,0.0003802610489044442,6.041900034435183e-05
1917300.287579812,-0.26,-0.5700000000000001,9.39,-0.001090830782496456,-0.003272492347489368,0.0,,,,0.9999991876849289,-0.001208221253975582,0.0004014692497882543,6.044274667277649e-05
1917300.291001588,-0.28,-0.55,9.39,-0.001090830782496456,-0.003272492347489368,0.0,,,,0.9999991374748903,-0.0012450172588014856,0.0004139158447134654,6.04580372714677e-05
1917300.297366405,-0.28,-0.55,9.39,0.0,-0.003272492347489368,0.003272492347489368,,,,0.9999990439383023,-0.0013099791964912605,0.0004370928190220696,7.090030854664018e-05
1917300.301293191,-0.26,-0.58,9.34,0.0,-0.003272492347489368,0.003272492347489368,,,,0.9999989833768587,-0.0013510706004361886,0.00044930162904578013,7.734033971874531e-05
1917300.307633015,-0.26,-0.58,9.34,-0.001090830782496456,-0.006544984694978736,-0.001090830782496456,,,,0.9999988826583924,-0.0014208708009883536,0.00045863224468023587,7.39229183786466e-05
1917300.310799583,-0.28,-0.55,9.39,-0.001090830782496456,-0.006544984694978736,-0.001090830782496456,,,,0.9999988309080775,-0.0014548980111746851,0.00046501449549925456,7.22203195604074e-05
1917300.317444666,-0.28,-0.55,9.39,-0.003272492347489368,-0.006544984694978736,0.001090830782496456,,,,0.999998706796286,-0.001533538580832382,0.00047843935676435123,7.59009797610215e-05
1917300.321305624,-0.29,-0.56,9.39,-0.003272492347489368,-0.006544984694978736,0.001090830782496456,,,,0.9999986318599063,-0.0015790687892192922,0.0004865485412309057,7.804224178603918e-05
1917300.327479779,-0.29,-0.56,9.39,-0.002181661564992912,-0.003272492347489368,0.001090830782496456,,,,0.9999985080425896,-0.0016484959157983291,0.0005096465142453013,8.145084991231201e-05
1917300.330642443,-0.29,-0.56,9.4,-0.002181661564992912,-0.003272492347489368,0.001090830782496456,,,,0.9999984425446324,-0.0016840527951485662,0.0005214907683390966,8.319778457604035e-05
1917300.339820697,-0.28,-0.56,9.39,-0.002181661564992912,-0.006544984694978736,0.001090830782496456,,,,0.9999982521936277,-0.0017879558568805352,0.000539470269493371,8.829140452747094e-05
1917300.349545177,-0.27,-0.54,9.36,-0.002181661564992912,-0.003272492347489368,0.0,,,,0.9999980298767043,-0.001897977761665849,0.0005745564266357848,8.836310943960327e-05
1917300.358302457,-0.29,-0.56,9.35,-0.002181661564992912,-0.004363323129985824,0.0,,,,0.9999978217397355,-0.0019963494408576123,0.0006027291545532407,8.844354387481814e-05
1917300.368085978,-0.29,-0.56,9.35,-0.001090830782496456,-0.00545415391248228,-0.001090830782496456,,,,0.9999975919142167,-0.0021008799514024984,0.0006289239534857356,8.320972648946406e-05
1917300.37123869,-0.27,-0.54,9.36,-0.001090830782496456,-0.00545415391248228,-0.001090830782496456,,,,0.9999975151611143,-0.0021347957356095534,0.0006369243346305025,8.152396052801703e-05
1917300.379840061,-0.26,-0.54,9.4,-0.003272492347489368,-0.003272492347489368,-0.001090830782496456,,,,0.9999972717649708,-0.0022374048503159046,0.0006667586929980273,7.690901512062046e-05
1917300.389551004,-0.25,-0.55,9.35,0.0,-0.001090830782496456,0.001090830782496456,,,,0.9999970112203187,-0.0023384843419955873,0.0007087139230599529,8.225562227487028e-05
1917300.399692073,-0.29,-0.54,9.35,-0.001090830782496456,-0.003272492347489368,0.001090830782496456,,,,0.9999967248054434,-0.0024457802776655263,0.0007488742047826192,8.788995970704754e-05
1917300.409507852,-0.28,-0.56,9.34,-0.001090830782496456,-0.006544984694978736,0.0,,,,0.9999964461863486,-0.0025513113780763386,0.0007685549221603741,8.802418375971038e-05
1917300.418521524,-0.27,-0.58,9.41,-0.002181661564992912,-0.00545415391248228,-0.001090830782496456,,,,0.9999961622376762,-0.0026545033928967376,0.0007887939783289069,8.322088766294242e-05
1917300.427435129,-0.27,-0.58,9.41,0.0,-0.002181661564992912,0.001090830782496456,,,,0.9999958846247223,-0.0027467824792398255,0.0008234977919094011,8.815337496170629e-05
1917300.430588705,-0.3,-0.53,9.36,0.0,-0.002181661564992912,0.001090830782496456,,,,0.9999957859052634,-0.0027779261244410386,0.0008385789815475553,8.990802916532418e-05
1917300.439949397,-0.28,-0.55,9.35,0.0,-0.001090830782496456,0.0,,,,0.9999954784454397,-0.002872932862854158,0.0008838826750712369,8.998254580107576e-05
1917300.449635187,-0.28,-0.56,9.39,-0.003272492347489368,-0.001090830782496456,0.001090830782496456,,,,0.9999951004376022,-0.002987496227808392,0.0009299863136656398,9.53547854225269e-05
1917300.457898531,-0.28,-0.56,9.39,-0.003272492347489368,-0.004363323129985824,0.0,,,,0.9999947793422812,-0.0030852203245009518,0.0009558182166257415,9.547391433534569e-05
1917300.461691935,-0.28,-0.54,9.36,-0.003272492347489368,-0.004363323129985824,0.0,,,,0.9999946289873665,-0.0031297229002161422,0.0009683514030808847,9.553296487140214e-05
1917300.467762535,-0.28,-0.54,9.36,-0.003272492347489368,-0.008726646259971648,0.003272492347489368,,,,0.9999943959463855,-0.0032009179590768975,0.0009752168854712536,0.00010560335742163688
1917300.470861773,-0.27,-0.54,9.4,-0.003272492347489368,-0.008726646259971648,0.003272492347489368,,,,0.999994274602665,-0.0032375194298002986,0.0009782460897254544,0.00011074483974144678
1917300.478400005,-0.29,-0.56,9.35,-0.001090830782496456,-0.003272492347489368,0.001090830782496456,,,,0.9999939824331873,-0.0033177128840742682,0.0010073047657782376,0.0001149597414652121
1917300.487892925,-0.29,-0.56,9.35,-0.002181661564992912,-0.003272492347489368,0.001090830782496456,,,,0.9999935864472983,-0.0034238561838210177,0.00104393814447444,0.00012027573616277832
1917300.491010659,-0.27,-0.56,9.370000000000001,-0.002181661564992912,-0.003272492347489368,0.001090830782496456,,,,0.9999934528936756,-0.003459231412370335,0.0010549877549505694,0.00012201908476303197
1917300.497456183,-0.27,-0.56,9.370000000000001,-0.001090830782496456,-0.003272492347489368,0.0,,,,0.9999931852805847,-0.0035288465886529237,0.0010778332469349773,0.0001221050199534602
1917300.501266932,-0.28,-0.56,9.38,-0.001090830782496456,-0.003272492347489368,0.0,,,,0.9999930250132874,-0.0035696759261208055,0.0010919778567485938,0.0001221593949271984
1917300.507363517,-0.28,-0.56,9.38,-0.002181661564992912,-0.00545415391248228,0.002181661564992912,,,,0.9999927592022462,-0.0036383061727249186,0.0011079935076506872,0.0001289250136371797
1917300.519971483,-0.27,-0.52,9.38,0.0,-0.002181661564992912,0.0,,,,0.9999922257708765,-0.0037651535520955223,0.0011641961086671147,0.00012908895388016777
1917300.527707801,-0.27,-0.52,9.38,-0.003272492347489368,-0.001090830782496456,0.001090830782496456,,,,0.9999918346093893,-0.0038556227795475597,0.0012029502312478789,0.0001334101599288529
1917300.53107588,-0.27,-0.53,9.370000000000001,-0.003272492347489368,-0.001090830782496456,0.001090830782496456,,,,0.9999916610048623,-0.0038951757361747707,0.0012195175746753234,0.00013529082027435055
1917300.537699202,-0.27,-0.53,9.370000000000001,-0.002181661564992912,-0.003272492347489368,0.001090830782496456,,,,0.9999913376129109,-0.003969337557479765,0.001244883017111596,0.00013901356004850744
1917300.5440837,-0.27,-0.55,9.39,-0.002181661564992912,-0.003272492347489368,0.001090830782496456,,,,0.9999910190803846,-0.004041417301750926,0.0012682154207326332,0.0001425987861280267
1917300.548225116,-0.26,-0.56,9.39,-0.001090830782496456,-0.003272492347489368,0.001090830782496456,,,,0.9999908178074391,-0.004086440165479903,0.0012823051137977716,0.0001449178331120056
1917300.557434763,-0.26,-0.56,9.39,-0.002181661564992912,-0.001090830782496456,0.0,,,,0.9999903286903603,-0.0041915809671784375,0.0013236858649227404,0.00014501886745147953
1917300.564330829,-0.29,-0.56,9.370000000000001,-0.002181661564992912,-0.001090830782496456,0.0,,,,0.9999899570640587,-0.004268509017163011,0.0013581399234276863,0.00014511285565817214
1917300.56836693,-0.27,-0.55,9.35,-0.003272492347489368,-0.002181661564992912,0.0,,,,0.9999897288903977,-0.00431625432160933,0.0013751313604891651,0.00014517603676060458
1917300.57889102,-0.28,-0.56,9.370000000000001,0.0,-0.003272492347489368,0.001090830782496456,,,,0.9999892062445103,-0.004423063022887603,0.0014145954973336357,0.00015108788505704013
1917300.587785296,-0.28,-0.56,9.370000000000001,-0.001090830782496456,-0.001090830782496456,0.001090830782496456,,,,0.9999887184453414,-0.004518157848148922,0.0014576966888189698,0.00015605148626712096
1917300.591316132,-0.29,-0.55,9.370000000000001,-0.001090830782496456,-0.001090830782496456,0.001090830782496456,,,,0.9999885226956573,-0.004555410816302705,0.0014757156323230206,0.0001580272896253662
1917300.597715671,-0.29,-0.55,9.370000000000001,-0.001090830782496456,-0.003272492347489368,0.001090830782496456,,,,0.9999881740424106,-0.004622926246123119,0.0015013995365839713,0.00016164058963013113
1917300.601631351,-0.27,-0.56,9.35,-0.001090830782496456,-0.003272492347489368,0.001090830782496456,,,,0.9999879564987978,-0.004665124589256633,0.0015154620574511916,0.00016384345490302876
1917300.607585403,-0.27,-0.56,9.35,-0.003272492347489368,0.0,0.0,,,,0.9999875767019182,-0.004735783886952428,0.0015465852611070935,0.0001639110483011662
1917300.611040109,-0.27,-0.5700000000000001,9.370000000000001,-0.003272492347489368,0.0,0.0,,,,0.999987353352052,-0.004776930004763532,0.0015643517541425245,0.00016394900792599185
1917300.617863533,-0.27,-0.5700000000000001,9.370000000000001,0.001090830782496456,-0.004363323129985824,0.003272492347489368,,,,0.9999870003309215,-0.004843288783026417,0.001584618238871113,0.00017523688803192453
1917300.621008852,-0.29,-0.56,9.35,0.001090830782496456,-0.004363323129985824,0.003272492347489368,,,,0.9999868372465046,-0.004873169344376324,0.0015953032865904351,0.0001804486007452185
1917300.628558957,-0.28,-0.55,9.39,0.0,-0.00545415391248228,0.002181661564992912,,,,0.9999864280375267,-0.0049493168539976795,0.0016162714098164098,0.00018886544683546463
1917300.638000387,-0.27,-0.54,9.38,-0.003272492347489368,-0.002181661564992912,-0.001090830782496456,,,,0.9999858061175184,-0.005060388846922246,0.0016571699885788071,0.00018389084748452307
1917300.649797991,-0.28,-0.53,9.36,0.001090830782496456,-0.003272492347489368,0.002181661564992912,,,,0.9999851538948458,-0.005171599962659275,0.0017052090230281918,0.00019699217183906397
1917300.659533415,-0.28,-0.5700000000000001,9.370000000000001,-0.001090830782496456,-0.004363323129985824,0.0,,,,0.9999845558106211,-0.005275978408147637,0.0017358859665272883,0.00019721050398224796
1917300.668326536,-0.27,-0.55,9.39,-0.001090830782496456,-0.002181661564992912,0.002181661564992912,,,,0.9999839867001102,-0.005370159184050551,0.0017733876455294708,0.00020695398183404417
1917300.677989574,-0.27,-0.55,9.39,-0.002181661564992912,-0.004363323129985824,0.0,,,,0.9999833418162348,-0.005478923585093126,0.0018040396175999522,0.00020718938749346105
1917300.68129301,-0.26,-0.54,9.39,-0.002181661564992912,-0.004363323129985824,0.0,,,,0.9999831181533887,-0.005516239582575355,0.0018142624498468155,0.0002072700089536683
1917300.687897579,-0.26,-0.54,9.39,-0.001090830782496456,-0.004363323129985824,0.001090830782496456,,,,0.9999826858967704,-0.00558722600348986,0.001834742317551346,0.00021102818559476936
1917300.693080022,-0.28,-0.54,9.370000000000001,-0.001090830782496456,-0.004363323129985824,0.001090830782496456,,,,0.9999823451400198,-0.005641907799760631,0.0018526986763995102,0.0002139912605897576
1917300.697883635,-0.28,-0.54,9.370000000000001,-0.002181661564992912,-0.004363323129985824,0.002181661564992912,,,,0.999982010864313,-0.005695195990513624,0.0018693768701213986,0.00021936388046966732
1917300.701566765,-0.26,-0.55,9.370000000000001,-0.002181661564992912,-0.004363323129985824,0.002181661564992912,,,,0.9999817504563111,-0.005736943130223796,0.0018805046129370866,0.00022347315995857988
1917300.707786137,-0.26,-0.55,9.370000000000001,0.0,-0.003272492347489368,0.001090830782496456,,,,0.9999813401792876,-0.005800649746339514,0.0019026906302139024,0.00022698925510650778
1917300.711712314,-0.28,-0.56,9.39,0.0,-0.003272492347489368,0.001090830782496456,,,,0.9999810800325195,-0.005840314789016289,0.0019177486244770611,0.00022921687208146864
1917300.717926918,-0.28,-0.56,9.39,-0.002181661564992912,-0.001090830782496456,-0.001090830782496456,,,,0.999980612911659,-0.005909885534825927,0.0019483340834786566,0.00022593823789203457
1917300.721327638,-0.31,-0.56,9.4,-0.002181661564992912,-0.001090830782496456,-0.001090830782496456,,,,0.9999803573256827,-0.005946973174899838,0.0019667807865672627,0.00022415662995673295
1917300.729393471,-0.28,-0.53,9.4,-0.002181661564992912,-0.003272492347489368,0.001090830782496456,,,,0.9999797573303388,-0.006035893036982881,0.0020001471985979474,0.0002287705983381672
1917300.739647152,-0.27,-0.56,9.35,-0.002181661564992912,-0.003272492347489368,0.0,,,,0.9999789763647484,-0.006151596582491092,0.002037704848571088,0.00022901298294353
1917300.749949251,-0.3,-0.54,9.370000000000001,-0.002181661564992912,-0.001090830782496456,0.0,,,,0.9999781643575233,-0.006263603061522246,0.0020941658793168956,0.00022924684459978622
1917300.758493756,-0.26,-0.55,9.4,0.0,-0.00545415391248228,0.003272492347489368,,,,0.9999775646224639,-0.00635101489598762,0.002115557637780121,0.00024346950190866872
1917300.767612168,-0.26,-0.55,9.4,-0.001090830782496456,-0.001090830782496456,0.002181661564992912,,,,0.9999768420101194,-0.006449248074974533,0.002158320735377985,0.0002535632851724696
1917300.770995703,-0.27,-0.55,9.4,-0.001090830782496456,-0.001090830782496456,0.002181661564992912,,,,0.9999765717041503,-0.0064853646400142234,0.0021748282118250915,0.0002573141065525392
1917300.777923995,-0.27,-0.55,9.4,-0.002181661564992912,-0.004363323129985824,0.002181661564992912,,,,0.9999760134373474,-0.006563090766807554,0.00219729923048554,0.0002650766458568171
1917300.78125844,-0.28,-0.54,9.39,-0.002181661564992912,-0.004363323129985824,0.002181661564992912,,,,0.999975743792013,-0.0065999645076807575,0.0022090792575010084,0.00026882139414417366
1917300.787634298,-0.28,-0.54,9.39,0.0,-0.001090830782496456,0.002181661564992912,,,,0.9999752470524859,-0.006663507870498048,0.0022420581987339584,0.0002758989184034065
1917300.799633476,-0.26,-0.53,9.35,-0.001090830782496456,-0.00545415391248228,0.002181661564992912,,,,0.9999743088776001,-0.006791438563477089,0.002274687807832003,0.0002893827598689698
1917300.809519145,-0.28,-0.56,9.4,-0.001090830782496456,-0.002181661564992912,0.0,,,,0.9999734897280718,-0.006896412011442867,0.002318505364660338,0.0002896123349816729
1917300.81885958,-0.27,-0.56,9.39,-0.001090830782496456,-0.004363323129985824,0.0,,,,0.9999727255245446,-0.006996486450852907,0.0023480521699054185,0.00028988853769125564
1917300.828278066,-0.26,-0.56,9.38,-0.001090830782496456,-0.003272492347489368,0.0,,,,0.9999719295277123,-0.007098273724644392,0.002381280377842716,0.0002901215541070525
1917300.837628613,-0.26,-0.56,9.38,0.0,0.001090830782496456,-0.001090830782496456,,,,0.9999711167164117,-0.007194214173668835,0.002434693672974976,0.0002851001137889226
1917300.841127288,-0.28,-0.55,9.39,0.0,0.001090830782496456,-0.001090830782496456,,,,0.9999708118081173,-0.007229225880439512,0.00245633933414113,0.00028323499080532927
1917300.847720785,-0.28,-0.55,9.39,-0.001090830782496456,0.001090830782496456,0.0,,,,0.9999702053121899,-0.007298797383523011,0.002497152734865204,0.00028332467202815854
1917300.85736571,-0.28,-0.55,9.39,0.001090830782496456,0.003272492347489368,-0.001090830782496456,,,,0.9999693587364634,-0.007390064165397072,0.0025673341409595814,0.00027809211814410774
1917300.860470228,-0.27,-0.53,9.38,0.001090830782496456,0.003272492347489368,-0.001090830782496456,,,,0.9999690835021159,-0.007419410344359099,0.0025899786007451673,0.0002764071780538342
1917300.870172499,-0.28,-0.54,9.39,-0.003272492347489368,-0.002181661564992912,0.0,,,,0.9999681251450604,-0.007531826026176876,0.0026350964532231946,0.0002766898382831948
1917300.877730315,-0.28,-0.54,9.39,0.0,0.0,0.0,,,,0.9999681251450604,-0.007531826026176876,0.0026350964532231946,0.0002766898382831948
1917300.881064953,-0.28,-0.56,9.36,0.0,0.0,0.0,,,,0.9999681251450604,-0.007531826026176876,0.0026350964532231946,0.0002766898382831948
1917300.887609584,-0.28,-0.56,9.36,-0.002181661564992912,0.001090830782496456,-0.001090830782496456,,,,0.9999674677832553,-0.007604852095185001,0.002674874804151228,0.00027321152424600374
1917300.891445422,-0.29,-0.55,9.38,-0.002181661564992912,0.001090830782496456,-0.001090830782496456,,,,0.9999670811057771,-0.007647023763954511,0.002699294746881105,0.0002711829918489684
1917300.897564471,-0.29,-0.55,9.38,-0.001090830782496456,-0.001090830782496456,-0.001090830782496456,,,,0.9999665033395609,-0.007710957552864908,0.002731577256727161,0.0002679891049458099
1917300.900778529,-0.27,-0.55,9.34,-0.001090830782496456,-0.001090830782496456,-0.001090830782496456,,,,0.9999661958632781,-0.007745217890251387,0.002747328611126778,0.000266300693112405
1917300.909979376,-0.28,-0.55,9.38,-0.002181661564992912,-0.001090830782496456,0.001090830782496456,,,,0.999965268461088,-0.007847301982065166,0.0027942784872867985,0.00027153431089368805
1917300.919913142,-0.27,-0.54,9.39,0.0,0.001090830782496456,-0.001090830782496456,,,,0.9999643099483538,-0.007947160467096185,0.002854924243329165,0.0002662284502406893
1917300.928124324,-0.27,-0.54,9.39,0.0,-0.001090830782496456,0.0,,,,0.9999635320979896,-0.008029696190306267,0.0028961161856076107,0.00026639114803513395
1917300.931222826,-0.27,-0.56,9.41,0.0,-0.001090830782496456,0.0,,,,0.999963235432486,-0.00806119091044301,0.0029110119730680994,0.0002664466035965553
1917300.937435382,-0.27,-0.56,9.41,-0.001090830782496456,0.001090830782496456,0.0,,,,0.9999625894745195,-0.008127726353973214,0.002947657782364066,0.000266513276487623
1917300.940795269,-0.28,-0.55,9.370000000000001,-0.001090830782496456,0.001090830782496456,0.0,,,,0.999962239195624,-0.008163168213305786,0.0029684699678237335,0.0002665588963524398
1917300.947514849,-0.28,-0.55,9.370000000000001,0.001090830782496456,0.001090830782496456,-0.001090830782496456,,,,0.9999615948875912,-0.008226732028796742,0.003010063159941631,0.00026296342833774
1917300.95130691,-0.26,-0.56,9.33,0.001090830782496456,0.001090830782496456,-0.001090830782496456,,,,0.9999612261321184,-0.008263618083526486,0.0030316285668196405,0.00026091522191998095
1917300.957525067,-0.26,-0.56,9.33,0.0,0.002181661564992912,0.0,,,,0.999960577962271,-0.008327488598966013,0.003070402361781204,0.0002609297452038703
1917300.960887161,-0.28,-0.55,9.370000000000001,0.0,0.002181661564992912,0.0,,,,0.999960227459157,-0.00836112684470316,0.0030930504005016834,0.0002609538996363611
1917300.967773563,-0.28,-0.55,9.370000000000001,0.0,0.0,0.001090830782496456,,,,0.9999595269618998,-0.008430017698378828,0.003131949772371083,0.0002648213776996224
1917300.971640443,-0.28,-0.5700000000000001,9.36,0.0,0.0,0.001090830782496456,,,,0.9999591296322825,-0.008469152866481682,0.0031529722373882766,0.0002669847234497635
1917300.97972906,-0.27,-0.55,9.39,-0.002181661564992912,-0.001090830782496456,0.0,,,,0.9999582320990166,-0.008559778257808959,0.0031926284547479106,0.0002671649986441463
1917300.989867826,-0.27,-0.53,9.38,0.0,0.0,0.0,,,,0.9999582320990166,-0.008559778257808959,0.0031926284547479106,0.0002671649986441463
1917300.99877071,-0.27,-0.55,9.35,0.0,0.001090830782496456,0.001090830782496456,,,,0.9999572841802994,-0.00864979662926911,0.003246042364138777,0.0002721066015261826
1917301.008070472,-0.27,-0.55,9.35,-0.002181661564992912,0.001090830782496456,-0.001090830782496456,,,,0.9999561962681871,-0.008754013732830608,0.0033017292347841806,0.00026715629246445007
1917301.011152013,-0.28,-0.55,9.370000000000001,-0.002181661564992912,0.001090830782496456,-0.001090830782496456,,,,0.9999558336410214,-0.008788204870181436,0.003320801141637296,0.000265522555354759
1917301.017644323,-0.28,-0.55,9.370000000000001,0.0,-0.001090830782496456,-0.001090830782496456,,,,0.9999551511219913,-0.008853155983708913,0.0033539032780414164,0.00026211929572333157
1917301.021457856,-0.28,-0.54,9.4,0.0,-0.001090830782496456,-0.001090830782496456,,,,0.9999547484970696,-0.008891052452674185,0.0033737930081640367,0.0002601253245176679
1917301.029347108,-0.27,-0.55,9.39,-0.002181661564992912,0.0,0.0,,,,0.9999538127190868,-0.00897943245352183,0.003416794153061651,0.000260267342848143
1917301.038286057,-0.27,-0.55,9.39,-0.001090830782496456,0.001090830782496456,-0.001090830782496456,,,,0.9999527693896187,-0.009074705397382098,0.0034703652532642694,0.0002554936235042603
1917301.042115879,-0.26,-0.53,9.35,-0.001090830782496456,0.001090830782496456,-0.001090830782496456,,,,0.9999523187975258,-0.009115495535721932,0.0034933703366571024,0.0002534487730955703
1917301.047963943,-0.26,-0.53,9.35,0.002181661564992912,0.0,0.0,,,,0.9999517247318246,-0.009168201939707382,0.0035253384316685146,0.00025351131010471447
1917301.051091438,-0.26,-0.54,9.35,0.002181661564992912,0.0,0.0,,,,0.9999514049724857,-0.009196584435207227,0.0035420679696009857,0.00025354048378893487
1917301.060111575,-0.28,-0.54,9.4,0.001090830782496456,0.0,0.0,,,,0.999950436852893,-0.009281261429293806,0.0035941157974953295,0.00025368410273062675
1917301.069986459,-0.28,-0.55,9.39,0.0,0.0,-0.001090830782496456,,,,0.999949314520142,-0.009380033705589064,0.003649880185438283,0.00024846128939120393
1917301.079835679,-0.28,-0.5700000000000001,9.39,-0.001090830782496456,-0.001090830782496456,0.0,,,,0.999948146582984,-0.009485101493483514,0.003697993878491832,0.00024866883204003226
1917301.089820007,-0.26,-0.55,9.38,0.001090830782496456,0.002181661564992912,0.001090830782496456,,,,0.9999469882300842,-0.009581728866339394,0.003761200650106174,0.00025410860963209726
1917301.099653771,-0.26,-0.56,9.370000000000001,0.0,0.001090830782496456,-0.001090830782496456,,,,0.9999458043763274,-0.009682876868647435,0.003816845090941282,0.00024879565507126736
1917301.109749559,-0.28,-0.56,9.39,0.0,0.001090830782496456,0.0,,,,0.9999445790298843,-0.009784472551064216,0.003878274943310154,0.0002488957792920736
1917301.119129131,-0.26,-0.55,9.34,-0.001090830782496456,-0.001090830782496456,0.0,,,,0.9999434137279742,-0.009885554751804951,0.003922131084420197,0.0002490723814146131
1917301.127890827,-0.26,-0.55,9.34,0.003272492347489368,-0.001090830782496456,0.0,,,,0.9999425048421672,-0.009960849417946163,0.003963130845583694,0.0002491640950143842
1917301.130993745,-0.27,-0.55,9.36,0.003272492347489368,-0.001090830782496456,0.0,,,,0.9999421820572835,-0.009987157644560627,0.003978331530155288,0.0002492046098862697
1917301.140131965,-0.29,-0.56,9.370000000000001,-0.001090830782496456,0.00545415391248228,-0.002181661564992912,,,,0.9999409112035417,-0.01008308942275322,0.004055638881387936,0.0002391702062797007
1917301.149865725,-0.27,-0.55,9.370000000000001,0.0,-0.001090830782496456,0.002181661564992912,,,,0.999939716288553,-0.010181552418451131,0.004103326928786945,0.0002499744666633122
1917301.158124877,-0.27,-0.55,9.370000000000001,-0.001090830782496456,-0.003272492347489368,0.0,,,,0.9999386862806726,-0.010269628303016524,0.004134705735852898,0.00025024443739151943
1917301.162093871,-0.29,-0.56,9.370000000000001,-0.001090830782496456,-0.003272492347489368,0.0,,,,0.9999381901584673,-0.010311266225390915,0.004151018646343647,0.00025039096576458616
1917301.16802213,-0.29,-0.56,9.370000000000001,-0.001090830782496456,0.001090830782496456,0.0,,,,0.9999373913519414,-0.010373451338054033,0.0041883343447082855,0.00025047760094210834
1917301.171119576,-0.29,-0.55,9.370000000000001,-0.001090830782496456,0.001090830782496456,0.0,,,,0.9999369725923238,-0.010405725392138913,0.004208201268832135,0.0002505275286590809
1917301.178411624,-0.28,-0.53,9.4,0.0,-0.001090830782496456,-0.001090830782496456,,,,0.9999360581939165,-0.010477553726812285,0.004247294644220772,0.00024673815945531455
1917301.189865088,-0.25,-0.56,9.4,0.0,0.0,0.0,,,,0.9999360581939165,-0.010477553726812285,0.004247294644220772,0.00024673815945531455
1917301.199752805,-0.29,-0.56,9.370000000000001,0.0,-0.001090830782496456,-0.002181661564992912,,,,0.9999348057909989,-0.010575921332787001,0.004298635976474092,0.0002361872601204267
1917301.208856944,-0.28,-0.53,9.39,0.0,0.0,0.001090830782496456,,,,0.9999336195136442,-0.010665534437757347,0.00435255076685615,0.00024133653156945315
1917301.218197091,-0.28,-0.53,9.39,-0.001090830782496456,0.001090830782496456,0.002181661564992912,,,,0.9999323125425373,-0.010762543294154329,0.0044130093867911484,0.00025168100268090586
1917301.221287625,-0.28,-0.56,9.370000000000001,-0.001090830782496456,0.001090830782496456,0.002181661564992912,,,,0.9999318751060348,-0.010795315975690084,0.004431842727134639,0.0002550881346068113
1917301.228331409,-0.28,-0.56,9.370000000000001,0.002181661564992912,0.0,-0.002181661564992912,,,,0.9999310190610942,-0.010858553410867845,0.0044707596757792714,0.0002474776485088011
1917301.232116013,-0.24,-0.56,9.4,0.002181661564992912,0.0,-0.002181661564992912,,,,0.9999305537345072,-0.010894265095946534,0.004488148924253228,0.00024334225846097098
1917301.237945421,-0.24,-0.56,9.4,0.0,0.002181661564992912,0.001090830782496456,,,,0.9999297331924216,-0.01095559066592193,0.004521389590032193,0.0002464692039147654
1917301.241042226,-0.28,-0.55,9.370000000000001,0.0,0.002181661564992912,0.001090830782496456,,,,0.9999292984096256,-0.01098653852084816,0.004542308170049045,0.00024817302869310293
1917301.250071483,-0.28,-0.54,9.35,-0.001090830782496456,-0.001090830782496456,0.001090830782496456,,,,0.9999280380674275,-0.011081050280788343,0.004589643788339961,0.000253340080075109
1917301.259765178,-0.28,-0.56,9.370000000000001,0.0,0.002181661564992912,-0.001090830782496456,,,,0.9999266566042305,-0.011178630657148773,0.004653824645225389,0.0002480828246802417
1917301.270228402,-0.26,-0.54,9.38,0.0,-0.003272492347489368,0.001090830782496456,,,,0.9999252785860883,-0.011285119287694805,0.0046924148433869365,0.0002541065409352193
1917301.277631685,-0.26,-0.54,9.38,0.0,0.0,0.0,,,,0.9999252785860883,-0.011285119287694805,0.0046924148433869365,0.0002541065409352193
1917301.280885424,-0.26,-0.5700000000000001,9.39,0.0,0.0,0.0,,,,0.9999252785860883,-0.011285119287694805,0.0046924148433869365,0.0002541065409352193
1917301.287619758,-0.26,-0.5700000000000001,9.39,-0.001090830782496456,-0.002181661564992912,0.0,,,,0.9999243244802901,-0.011358533881634329,0.00471851398975982,0.00025425661012115874
1917301.291508845,-0.27,-0.55,9.34,-0.001090830782496456,-0.002181661564992912,0.0,,,,0.9999237726681175,-0.011399993313136809,0.004735430480627357,0.0002543693820725412
1917301.297633687,-0.27,-0.55,9.34,0.001090830782496456,0.001090830782496456,0.001090830782496456,,,,0.9999229275357048,-0.011458585050188116,0.004772146894955051,0.00025774228681835974
1917301.301157579,-0.28,-0.55,9.36,0.001090830782496456,0.001090830782496456,0.001090830782496456,,,,0.9999224403758834,-0.01149185019627238,0.004794076648296704,0.0002596938480294751
1917301.307805093,-0.28,-0.55,9.36,0.0,-0.001090830782496456,-0.001090830782496456,,,,0.9999215120688282,-0.011558264889745882,0.004828101449844903,0.00025622473874991735
1917301.31341843,-0.28,-0.54,9.38,0.0,-0.001090830782496456,-0.001090830782496456,,,,0.9999207252234115,-0.011613911809058696,0.004857587565696735,0.0002533065730418114
1917301.318272157,-0.28,-0.54,9.38,0.0,0.0,0.001090830782496456,,,,0.9999200273933858,-0.01166199937887894,0.004885798601096381,0.0002560471191069794
1917301.321672941,-0.28,-0.54,9.39,0.0,0.0,0.001090830782496456,,,,0.9999195366062624,-0.011695690315493267,0.00490556765496063,0.00025796733160301057
1917301.328368937,-0.28,-0.54,9.370000000000001,0.0,0.0,-0.001090830782496456,,,,0.9999185676620015,-0.011762069010897155,0.004944394343255328,0.00025444436072211976
1917301.340278033,-0.28,-0.53,9.36,-0.002181661564992912,0.0,0.001090830782496456,,,,0.9999166753524175,-0.011892079930319946,0.005015230014533213,0.00026125657994898816
1917301.349942574,-0.31,-0.56,9.370000000000001,-0.001090830782496456,0.001090830782496456,0.001090830782496456,,,,0.9999151657986308,-0.011990807193598607,0.0050804135566365665,0.00026673364282814375
1917301.359262561,-0.28,-0.54,9.38,0.0,0.0,-0.001090830782496456,,,,0.9999137788791727,-0.01208319729715937,0.005134451844875996,0.00026182991355395215
1917301.370166343,-0.28,-0.55,9.41,-0.001090830782496456,0.001090830782496456,-0.002181661564992912,,,,0.9999120371191592,-0.012198101052262926,0.005202097011486819,0.0002500832163934915
1917301.378105708,-0.28,-0.55,9.41,-0.001090830782496456,-0.002181661564992912,-0.001090830782496456,,,,0.9999108246931584,-0.01228174389557939,0.0052384065805035915,0.0002460179436494176
1917301.381684066,-0.29,-0.55,9.35,-0.001090830782496456,-0.002181661564992912,-0.001090830782496456,,,,0.9999102771107024,-0.012318960000913207,0.0052555988868225895,0.00024419917104696783
1917301.387802475,-0.29,-0.55,9.35,0.0,-0.001090830782496456,-0.002181661564992912,,,,0.9999093614363005,-0.012379266843444979,0.005288304611303492,0.0002376947763697435
1917301.3917379,-0.28,-0.56,9.38,0.0,-0.001090830782496456,-0.002181661564992912,,,,0.9999087673627741,-0.012418872856333791,0.00530792150551166,0.00023348945879985702
1917301.397922807,-0.28,-0.56,9.38,0.0,0.0,-0.001090830782496456,,,,0.9999078109601363,-0.012481096796122968,0.005342172418761471,0.0002302119080417062
1917301.401438123,-0.28,-0.53,9.38,0.0,0.0,-0.001090830782496456,,,,0.9999072678671352,-0.012515615709310231,0.005363103224521752,0.00022837184812681807
1917301.409143912,-0.28,-0.53,9.38,0.001090830782496456,-0.004363323129985824,0.001090830782496456,,,,0.9999062134448455,-0.012587031458506672,0.005392281200810977,0.00023293111674761922
1917301.417830726,-0.29,-0.55,9.39,0.001090830782496456,-0.004363323129985824,0.001090830782496456,,,,0.9999050168110294,-0.012667760398347955,0.005424806589256103,0.00023806741515311472
1917301.421355194,-0.29,-0.55,9.36,0.002181661564992912,-0.001090830782496456,0.002181661564992912,,,,0.9999045217409479,-0.012698574702720171,0.005443807742188954,0.0002419913054338515
1917301.4301927,-0.29,-0.56,9.38,0.0,-0.002181661564992912,0.001090830782496456,,,,0.9999031765016937,-0.012786212041776147,0.005485375322310551,0.00024710527922698074
1917301.440406924,-0.28,-0.56,9.370000000000001,0.001090830782496456,-0.001090830782496456,-0.002181661564992912,,,,0.9999016507711386,-0.012883371760333216,0.005536401575187233,0.00023616696518136674
1917301.44764953,-0.28,-0.56,9.370000000000001,0.0,0.0,-0.001090830782496456,,,,0.9999004874670113,-0.01295618811084429,0.005576591663043888,0.00023233229059326874
1917301.450880516,-0.27,-0.56,9.36,0.0,0.0,-0.001090830782496456,,,,0.9998999651703543,-0.012989102422506145,0.0055937188123977325,0.00023060882410895863
1917301.460122804,-0.28,-0.56,9.370000000000001,-0.001090830782496456,-0.001090830782496456,0.001090830782496456,,,,0.9998984268418627,-0.013087002435237038,0.005640099496338,0.0002358900161683238
1917301.467895092,-0.28,-0.56,9.370000000000001,0.0,-0.001090830782496456,0.002181661564992912,,,,0.9998971789201312,-0.013165053043645384,0.005679186770329371,0.0002445476413357995
1917301.471140062,-0.27,-0.54,9.39,0.0,-0.001090830782496456,0.002181661564992912,,,,0.9998966557988482,-0.013197582248123037,0.005695608801524273,0.0002481641875674941
1917301.478389773,-0.27,-0.54,9.39,0.001090830782496456,0.002181661564992912,-0.002181661564992912,,,,0.9998954705681257,-0.01326639271998634,0.005743956930125419,0.00024025055802057448
1917301.483932675,-0.29,-0.54,9.39,0.001090830782496456,0.002181661564992912,-0.002181661564992912,,,,0.999894565335728,-0.013317368023263977,0.005783688293103058,0.0002342450359041041
1917301.488885894,-0.29,-0.54,9.39,0.0,0.0,-0.001090830782496456,,,,0.99989374750143,-0.013365615343661234,0.005813808114543434,0.00023166622332901872
1917301.493991821,-0.27,-0.55,9.36,0.0,0.0,-0.001090830782496456,,,,0.9998928945918489,-0.01341728776816339,0.0058415164693624575,0.00022895199973194485
1917301.500795149,-0.28,-0.55,9.32,-0.002181661564992912,-0.001090830782496456,-0.001090830782496456,,,,0.9998916772299578,-0.01349260183972645,0.005876450530006112,0.00022545736838417598
1917301.507722545,-0.28,-0.55,9.32,0.0,0.002181661564992912,-0.002181661564992912,,,,0.9998904668883829,-0.013561742914479504,0.005923332119998475,0.00021792533002311831
1917301.510959995,-0.27,-0.55,9.35,0.0,0.002181661564992912,-0.002181661564992912,,,,0.9998898975089755,-0.013594521507119565,0.005944399140096579,0.00021439063921695962
1917301.520413042,-0.28,-0.54,9.36,-0.001090830782496456,0.003272492347489368,0.001090830782496456,,,,0.9998881279063091,-0.013693123674357897,0.0060151333444296365,0.00021956070690187107
1917301.528078094,-0.28,-0.54,9.36,0.0,0.0,0.002181661564992912,,,,0.9998868148027265,-0.013768894669608924,0.0060599590886571296,0.00022807691521011485
1917301.531158515,-0.27,-0.56,9.39,0.0,0.0,0.002181661564992912,,,,0.9998862822484609,-0.013800287994754629,0.006076268934210307,0.00023147019784357
1917301.540317024,-0.29,-0.54,9.370000000000001,-0.002181661564992912,0.001090830782496456,0.0,,,,0.9998845376263403,-0.013899443983795133,0.006137034517329257,0.00023168952119236995
1917301.549913084,-0.27,-0.55,9.39,0.0,0.001090830782496456,-0.001090830782496456,,,,0.999882830590168,-0.01399663963454537,0.006194179800496443,0.00022650945479188382
1917301.558585753,-0.3,-0.56,9.370000000000001,0.001090830782496456,-0.001090830782496456,0.001090830782496456,,,,0.9998814102805835,-0.014076621902747917,0.006241835204344878,0.00023148304572741268
1917301.568186516,-0.3,-0.56,9.370000000000001,-0.001090830782496456,0.0,0.001090830782496456,,,,0.9998796464886374,-0.014175631034242126,0.006299830359677399,0.00023698096535323574
1917301.571756554,-0.26,-0.55,9.370000000000001,-0.001090830782496456,0.0,0.001090830782496456,,,,0.9998789821178254,-0.014214252450440721,0.0063181516672093565,0.00023896821253811077
1917301.579892885,-0.28,-0.54,9.38,-0.001090830782496456,0.0,-0.001090830782496456,,,,0.9998774714101402,-0.014299177631734532,0.006365578486493956,0.0002347254840157098
1917301.589654838,-0.27,-0.54,9.38,0.0,0.0,0.002181661564992912,,,,0.9998757143836242,-0.014397179864704249,0.006420024572721423,0.0002455244721707038
1917301.60006526,-0.26,-0.56,9.38,-0.001090830782496456,0.0,-0.001090830782496456,,,,0.9998737423574672,-0.01451062710494937,0.006471744367692364,0.00023993735432398602
1917301.610149784,-0.28,-0.55,9.39,-0.002181661564992912,0.001090830782496456,-0.002181661564992912,,,,0.9998717103925391,-0.014622277809991835,0.006534466810048405,0.00022911100867550348
1917301.620166017,-0.27,-0.53,9.38,-0.001090830782496456,0.001090830782496456,0.0,,,,0.9998697546335281,-0.014727401527974512,0.006597337010167308,0.0002292546541794564
1917301.630077159,-0.28,-0.56,9.38,-0.001090830782496456,0.001090830782496456,-0.001090830782496456,,,,0.9998678025810457,-0.014832552947269217,0.006657520467198922,0.0002239554563733255
1917301.639993037,-0.29,-0.56,9.41,-0.001090830782496456,-0.003272492347489368,0.0,,,,0.9998659835560417,-0.01493619120238813,0.006698861869358663,0.00022443157132799078
1917301.650086713,-0.28,-0.56,9.36,0.001090830782496456,-0.002181661564992912,0.0,,,,0.9998642427775914,-0.015032198609118976,0.006743776641980752,0.0002247139804611066
1917301.659951549,-0.27,-0.54,9.38,0.0,0.001090830782496456,0.0,,,,0.9998623400971116,-0.015131211028567172,0.006804173490106801,0.00022479202265490673
1917301.670383924,-0.27,-0.56,9.370000000000001,0.001090830782496456,0.0,0.0,,,,0.999860434776261,-0.01523201705617512,0.006859013361301639,0.00022485803647140498
1917301.678278807,-0.27,-0.56,9.370000000000001,0.001090830782496456,0.0,-0.001090830782496456,,,,0.9998589850934556,-0.015308339221602225,0.006900435708124351,0.00022060190236244248
1917301.681385149,-0.29,-0.55,9.38,0.001090830782496456,0.0,-0.001090830782496456,,,,0.9998584164467638,-0.015337100062479918,0.00691899372487372,0.00021897049748655984
1917301.687858258,-0.29,-0.55,9.38,-0.001090830782496456,0.0,0.0,,,,0.999857118191243,-0.015404070245808385,0.006957714826840603,0.00021914961385356523
1917301.691647055,-0.27,-0.56,9.39,-0.001090830782496456,0.0,0.0,,,,0.9998563508648554,-0.01544482382732179,0.0069776072574993025,0.0002192010912456004
1917301.697883196,-0.27,-0.56,9.39,-0.001090830782496456,0.0,0.002181661564992912,,,,0.9998550819045564,-0.015511852151595803,0.0070104576779568845,0.00022608760586102707
1917301.701071269,-0.28,-0.55,9.35,-0.001090830782496456,0.0,0.002181661564992912,,,,0.9998544330420451,-0.01554533499386877,0.007028694995178332,0.00022963615511136277
1917301.70791527,-0.28,-0.55,9.35,0.0,-0.001090830782496456,-0.001090830782496456,,,,0.9998531224138125,-0.015613557744543547,0.007063943487933525,0.00022608915676038477
1917301.711726691,-0.28,-0.54,9.35,0.0,-0.001090830782496456,-0.001090830782496456,,,,0.9998523913186531,-0.015651165784952417,0.007084232560215262,0.00022412714210184688
1917301.717995921,-0.28,-0.54,9.35,-0.001090830782496456,0.001090830782496456,0.0,,,,0.9998510816208366,-0.015716416879250066,0.007124502802494517,0.00022423634421317562
1917301.721292925,-0.28,-0.55,9.38,-0.001090830782496456,0.001090830782496456,0.0,,,,0.9998503893419285,-0.015751059225444362,0.007145121650641239,0.0002242825632522776
1917301.730183202,-0.28,-0.53,9.370000000000001,0.0,0.001090830782496456,0.001090830782496456,,,,0.9998485973184448,-0.01583771236161168,0.007203938963064689,0.00022928346163605053
1917301.739836639,-0.28,-0.56,9.39,0.002181661564992912,0.001090830782496456,0.001090830782496456,,,,0.9998467963563579,-0.015924236140242527,0.00726274827069206,0.00023453535798798508
1917301.749705315,-0.27,-0.54,9.34,-0.002181661564992912,0.002181661564992912,-0.002181661564992912,,,,0.999844563554811,-0.016034220051547407,0.0073281932661643165,0.00022383181645751416
1917301.758385409,-0.27,-0.54,9.34,0.0,0.001090830782496456,0.0,,,,0.9998427715845234,-0.016121431685381927,0.007381153296648254,0.0002238897128643161
1917301.761708302,-0.26,-0.54,9.36,0.0,0.001090830782496456,0.0,,,,0.9998420815249129,-0.016155405712922212,0.007400321055524978,0.00022388938220214722
1917301.768266213,-0.26,-0.54,9.36,-0.002181661564992912,-0.001090830782496456,0.0,,,,0.9998406522981205,-0.01622960966659971,0.007430987866422043,0.0002240568409728857
1917301.772135845,-0.27,-0.55,9.39,-0.002181661564992912,-0.001090830782496456,0.0,,,,0.9998398065891957,-0.016273060480909343,0.007449725529385899,0.00022416913553007284
1917301.778767071,-0.3,-0.56,9.39,0.001090830782496456,-0.001090830782496456,0.0,,,,0.9998385389042387,-0.016333891149021448,0.007486639786757333,0.00022438019645724703
1917301.787777575,-0.3,-0.56,9.39,0.0,-0.002181661564992912,0.001090830782496456,,,,0.9998367635079977,-0.016421418979013017,0.007531970218012471,0.0002296980693973594
1917301.791622213,-0.27,-0.54,9.38,0.0,-0.002181661564992912,0.001090830782496456,,,,0.9998359984534497,-0.016460006478543524,0.007549211520372634,0.00023192399710651667
1917301.797873395,-0.27,-0.54,9.38,0.001090830782496456,-0.001090830782496456,0.0,,,,0.9998347820055744,-0.016519356159053773,0.007580614435664589,0.00023205329954099826
1917301.801222945,-0.29,-0.55,9.35,0.001090830782496456,-0.001090830782496456,0.0,,,,0.9998341313958717,-0.016550294025501,0.007598918884645215,0.0002321536492502153
1917301.807857563,-0.29,-0.55,9.35,-0.001090830782496456,-0.002181661564992912,0.001090830782496456,,,,0.9998327454245769,-0.016618779954045298,0.007631617996788267,0.00023608545797391213
1917301.811677016,-0.28,-0.55,9.370000000000001,-0.001090830782496456,-0.002181661564992912,0.001090830782496456,,,,0.9998319423833907,-0.016658881058087358,0.007649305371196044,0.00023832559013828132
1917301.818131181,-0.28,-0.55,9.370000000000001,0.0,0.0,-0.001090830782496456,,,,0.999830587525055,-0.01672316849444653,0.007686136436768852,0.00023492868093179372
1917301.821620991,-0.27,-0.53,9.39,0.0,0.0,-0.001090830782496456,,,,0.9998298530268552,-0.01675781993856082,0.007706239905502716,0.00023309595205820875
1917301.828799307,-0.29,-0.53,9.4,-0.001090830782496456,0.0,0.0,,,,0.9998282834218766,-0.01683005030482377,0.0077523295876055975,0.0002333717337018267
1917301.838626574,-0.28,-0.5700000000000001,9.38,0.002181661564992912,-0.001090830782496456,0.0,,,,0.9998264125537134,-0.01691906932130618,0.007799700923050464,0.0002334925769879986
1917301.850217003,-0.28,-0.55,9.370000000000001,-0.001090830782496456,-0.002181661564992912,0.0,,,,0.999823925791165,-0.017040786039808232,0.007853297522576932,0.00023397587612519397
1917301.859790854,-0.29,-0.55,9.38,0.002181661564992912,0.001090830782496456,0.0,,,,0.9998220100889093,-0.017123799926666097,0.007916365044971127,0.00023405623129504592
1917301.869154554,-0.29,-0.55,9.370000000000001,0.0,0.001090830782496456,0.0,,,,0.9998199499413717,-0.017215251862155362,0.007977966369132792,0.0002342118032725156
1917301.878734101,-0.29,-0.54,9.370000000000001,0.001090830782496456,0.002181661564992912,-0.001090830782496456,,,,0.9998178846978142,-0.017302454139487018,0.008047984375759078,0.00022905594753825406
1917301.888590969,-0.29,-0.54,9.370000000000001,0.0,0.0,-0.002181661564992912,,,,0.9998157412807245,-0.017397646924701454,0.008109104913722335,0.00021860067963489077
1917301.891752865,-0.28,-0.56,9.34,0.0,0.0,-0.002181661564992912,,,,0.9998150459462998,-0.01742952794680962,0.008126447280201713,0.00021519654303044105
1917301.897851017,-0.28,-0.56,9.34,-0.001090830782496456,-0.001090830782496456,0.0,,,,0.9998136686946805,-0.017494284891125457,0.00815668464944736,0.0002153670384588209
1917301.901641638,-0.29,-0.56,9.370000000000001,-0.001090830782496456,-0.001090830782496456,0.0,,,,0.9998128122539364,-0.017533824595738542,0.008176735727314486,0.0002155011986109167
1917301.908073241,-0.29,-0.56,9.370000000000001,0.0,0.0,-0.002181661564992912,,,,0.9998113890710657,-0.017597455297645385,0.008214154033902077,0.0002086248808305261
1917301.911130526,-0.26,-0.5700000000000001,9.36,0.0,0.0,-0.002181661564992912,,,,0.9998107076234685,-0.017629594659256766,0.008228254703272318,0.00020527578446944382
1917301.92058242,-0.29,-0.55,9.370000000000001,0.0,-0.001090830782496456,0.001090830782496456,,,,0.9998086463975335,-0.01772185181714475,0.008280225503052492,0.00021076650952686808
1917301.928377077,-0.29,-0.55,9.370000000000001,0.0,-0.001090830782496456,-0.002181661564992912,,,,0.9998069408556032,-0.017798023633550254,0.008322880961605002,0.00020254431356323864
1917301.931482811,-0.29,-0.55,9.36,0.0,-0.001090830782496456,-0.002181661564992912,,,,0.9998062591624008,-0.01782837156348225,0.008339880041923493,0.00019926858027961538
1917301.937874701,-0.29,-0.55,9.36,-0.001090830782496456,0.0,0.002181661564992912,,,,0.9998047579934781,-0.01789419556473913,0.008378606252263995,0.00020643634189108077
1917301.941648073,-0.27,-0.55,9.38,-0.001090830782496456,0.0,0.002181661564992912,,,,0.9998038642060977,-0.017934554985064508,0.008398839217784062,0.0002106082538689555
1917301.948103165,-0.27,-0.55,9.38,0.0,0.0,-0.001090830782496456,,,,0.9998023960754524,-0.018000163848718345,0.008433266846445107,0.0002071557387677683
1917301.951173122,-0.26,-0.5700000000000001,9.35,0.0,0.0,-0.001090830782496456,,,,0.9998016954221194,-0.018032460730840062,0.00844736501887674,0.00020546358416900445
1917301.960505333,-0.26,-0.55,9.38,0.001090830782496456,0.001090830782496456,0.001090830782496456,,,,0.9997996042017261,-0.01812394208599337,0.0084988162843019,0.00021043550372903857
1917301.970336344,-0.27,-0.55,9.39,0.0,0.001090830782496456,0.002181661564992912,,,,0.9997972926456582,-0.01822372330251157,0.00855690448421988,0.0002211629571082933
1917301.980270078,-0.29,-0.55,9.38,-0.002181661564992912,-0.002181661564992912,-0.001090830782496456,,,,0.9997949016764142,-0.01833144057948848,0.008606165269327526,0.00021630415437165116
1917301.990162052,-0.28,-0.54,9.35,0.001090830782496456,0.0,0.0,,,,0.9997927071427296,-0.01842326892722755,0.008664815973933251,0.0002164956930579088
1917301.99992346,-0.27,-0.56,9.38,0.0,0.0,0.0,,,,0.9997927071427296,-0.01842326892722755,0.008664815973933251,0.0002164956930579088
1917302.009994575,-0.27,-0.56,9.35,0.0,0.0,-0.001090830782496456,,,,0.9997903483742399,-0.01852669277036299,0.008716444578163441,0.00021106071312879907
1917302.020514409,-0.27,-0.5700000000000001,9.370000000000001,0.0,0.002181661564992912,-0.001090830782496456,,,,0.9997877688760937,-0.018635683902667333,0.008779886924761319,0.00020512637847868681
1917302.028079938,-0.27,-0.5700000000000001,9.370000000000001,-0.001090830782496456,0.0,0.001090830782496456,,,,0.9997858978160475,-0.018718146343547168,0.008817353380722717,0.00020929639446255868
1917302.03119908,-0.28,-0.56,9.36,-0.001090830782496456,0.0,0.001090830782496456,,,,0.9997851253757873,-0.018751230196114715,0.008834585349713814,0.00021105722472312662
1917302.040465241,-0.27,-0.56,9.39,-0.001090830782496456,0.001090830782496456,-0.003272492347489368,,,,0.9997827782448453,-0.018851538773543838,0.008886924895723668,0.00019589993873557528
1917302.050081493,-0.28,-0.55,9.36,0.0,0.0,-0.001090830782496456,,,,0.9997804801098183,-0.018947223036290806,0.008941918640450814,0.00019084449670650965
1917302.058661423,-0.28,-0.55,9.36,0.001090830782496456,0.0,0.002181661564992912,,,,0.9997785056924031,-0.019027789679729616,0.008991253757268136,0.0002003278364711998
1917302.064080353,-0.27,-0.56,9.370000000000001,0.001090830782496456,0.0,0.002181661564992912,,,,0.9997772500488812,-0.019080446616149493,0.009019107907247024,0.00020623817000358887
1917302.068746811,-0.27,-0.56,9.370000000000001,-0.001090830782496456,-0.001090830782496456,0.0,,,,0.9997760926001528,-0.019130929002491782,0.009040445091642427,0.00020633278328102065
1917302.071816128,-0.26,-0.5700000000000001,9.39,-0.001090830782496456,-0.001090830782496456,0.0,,,,0.9997753300335877,-0.019164994899844717,0.009052615404206935,0.00020635179514823495
1917302.078688322,-0.26,-0.56,9.38,0.001090830782496456,-0.00545415391248228,-0.002181661564992912,,,,0.9997738988181053,-0.019233262188071257,0.009066046931853467,0.00019914989145342055
1917302.087939954,-0.26,-0.56,9.38,-0.002181661564992912,-0.001090830782496456,0.0,,,,0.9997714861151235,-0.019340153028374912,0.00910463133206813,0.00019929953328985827
1917302.100372266,-0.26,-0.56,9.370000000000001,0.0,-0.003272492347489368,0.001090830782496456,,,,0.9997686104344965,-0.019470121500504065,0.009143158533130285,0.0002064235201437064
1917302.110163052,-0.28,-0.56,9.38,0.0,0.0,-0.001090830782496456,,,,0.9997661933231391,-0.01956835834702018,0.00919769199686854,0.00020125032410882795
1917302.120155669,-0.28,-0.54,9.370000000000001,0.0,-0.001090830782496456,0.0,,,,0.9997637735718693,-0.019665796296373855,0.00925272117541548,0.00020164378454554048
1917302.129713231,-0.29,-0.56,9.38,0.0,0.001090830782496456,0.0,,,,0.9997613481423493,-0.01975948579887193,0.009314975041713518,0.0002017957598869303
1917302.139074915,-0.3,-0.56,9.370000000000001,0.001090830782496456,0.0,0.0,,,,0.9997591201760888,-0.019844015002340173,0.009374212267756758,0.00020208334640899804
1917302.148568827,-0.29,-0.56,9.39,-0.001090830782496456,-0.001090830782496456,-0.001090830782496456,,,,0.9997566821496718,-0.019942343593018812,0.009425523794888462,0.0001973076030369059
1917302.160391103,-0.29,-0.55,9.38,0.0,-0.001090830782496456,0.0,,,,0.9997537659685234,-0.020056455996837252,0.009492463875024875,0.00019782361653095768
1917302.170399816,-0.27,-0.55,9.35,0.0,-0.003272492347489368,-0.002181661564992912,,,,0.9997513708278063,-0.020158124105891826,0.0095295047694817,0.00018734807728483836
1917302.178755035,-0.27,-0.55,9.35,0.001090830782496456,-0.002181661564992912,0.0,,,,0.9997494094716152,-0.020238289023388884,0.009565287774076175,0.00018758561162552512
1917302.181983461,-0.28,-0.53,9.41,0.001090830782496456,-0.002181661564992912,0.0,,,,0.9997486578389925,-0.02026730451908518,0.009582393319641431,0.00018776296627054067
1917302.188104878,-0.28,-0.53,9.41,-0.002181661564992912,0.003272492347489368,0.0,,,,0.999746865361908,-0.02033232915201238,0.009631526351461006,0.00018785748457990527
1917302.191414907,-0.28,-0.56,9.38,-0.002181661564992912,0.003272492347489368,0.0,,,,0.9997458858075479,-0.02036914306185883,0.009655389114596668,0.00018783730449512185
1917302.198171129,-0.28,-0.56,9.38,0.0,0.002181661564992912,-0.001090830782496456,,,,0.9997440674908672,-0.02043696203591618,0.009700319644166127,0.0001841150723739179
1917302.201991095,-0.28,-0.55,9.39,0.0,0.002181661564992912,-0.001090830782496456,,,,0.9997430383428315,-0.020474767532058995,0.009726666592335346,0.00018203448471260762
1917302.207998268,-0.28,-0.55,9.39,0.0,-0.002181661564992912,0.001090830782496456,,,,0.9997415423263548,-0.020534164885102606,0.009755110407996613,0.0001855810349611263
1917302.211297929,-0.26,-0.56,9.370000000000001,0.0,-0.002181661564992912,0.001090830782496456,,,,0.9997407157954475,-0.020568806958601256,0.009766792283906653,0.00018742889075881074
1917302.218191499,-0.26,-0.56,9.370000000000001,-0.002181661564992912,0.001090830782496456,-0.001090830782496456,,,,0.9997387203569458,-0.020648763046479376,0.00980234102398046,0.00018361415070044165
1917302.221982344,-0.27,-0.55,9.370000000000001,-0.002181661564992912,0.001090830782496456,-0.001090830782496456,,,,0.9997376202861988,-0.020691373655534844,0.009824696771840837,0.00018158765578871953
1917302.228597249,-0.27,-0.55,9.370000000000001,0.0,-0.003272492347489368,0.0,,,,0.9997359865616428,-0.0207584747010109,0.009849356279634347,0.00018188618224969
1917302.23190795,-0.29,-0.54,9.38,0.0,-0.003272492347489368,0.0,,,,0.9997351782592595,-0.020789616565708297,0.009865699049797165,0.00018214345002072135
1917302.238281312,-0.29,-0.54,9.38,-0.001090830782496456,-0.001090830782496456,-0.001090830782496456,,,,0.9997334781806337,-0.020853058390517903,0.00990406482392412,0.0001790546779108637
1917302.250305643,-0.29,-0.54,9.39,0.0,-0.001090830782496456,0.001090830782496456,,,,0.9997303914119854,-0.020965988753349592,0.00997682829137985,0.00018627956723736848
1917302.258935367,-0.26,-0.54,9.35,-0.002181661564992912,0.002181661564992912,-0.001090830782496456,,,,0.9997277952618148,-0.021064171430953925,0.01003011057305625,0.00018150694405494718
1917302.268690023,-0.26,-0.54,9.35,0.0,0.002181661564992912,-0.002181661564992912,,,,0.9997250718271351,-0.021164590053791208,0.01009018111300698,0.00017068447889489398
1917302.271942834,-0.27,-0.56,9.38,0.0,0.002181661564992912,-0.002181661564992912,,,,0.9997241605951458,-0.021198081323515548,0.010110200621644673,0.00016707460258752016
1917302.279941753,-0.28,-0.55,9.370000000000001,-0.001090830782496456,-0.002181661564992912,-0.002181661564992912,,,,0.9997220060522891,-0.02128149834221671,0.010148065534074676,0.000158773464920947
1917302.288989635,-0.29,-0.53,9.370000000000001,0.0,0.0,-0.001090830782496456,,,,0.9997196044613721,-0.02136416174550224,0.01021083874202914,0.0001543395413030455
1917302.298045804,-0.29,-0.53,9.370000000000001,0.0,-0.001090830782496456,0.0,,,,0.999717239874692,-0.02144684698677446,0.010268838476358419,0.0001549451516112398
1917302.301887403,-0.27,-0.5700000000000001,9.36,0.0,-0.001090830782496456,0.0,,,,0.9997162121759294,-0.021486878734251532,0.010285190216504553,0.00015497445586245886
1917302.308138936,-0.27,-0.5700000000000001,9.36,0.002181661564992912,0.002181661564992912,0.001090830782496456,,,,0.999714576662235,-0.02154516629236401,0.010322112658840078,0.0001581415216301836
1917302.311473094,-0.28,-0.55,9.370000000000001,0.002181661564992912,0.002181661564992912,0.001090830782496456,,,,0.9997137057867255,-0.021574437947810752,0.010345265292083421,0.000159923247346235
1917302.318576367,-0.28,-0.55,9.370000000000001,0.002181661564992912,0.001090830782496456,-0.001090830782496456,,,,0.9997118871903048,-0.021636902322501695,0.010390510827574114,0.00015605456735653071
1917302.322354891,-0.27,-0.55,9.370000000000001,0.002181661564992912,0.001090830782496456,-0.001090830782496456,,,,0.9997109140994301,-0.02167126226288808,0.010412536908404869,0.00015394007319994402
1917302.328739069,-0.28,-0.54,9.39,0.0,0.002181661564992912,-0.002181661564992912,,,,0.9997090901552282,-0.02173318045906528,0.010458599775314437,0.0001470335996187499
1917302.340527745,-0.27,-0.55,9.370000000000001,0.001090830782496456,0.001090830782496456,0.0,,,,0.9997058921043028,-0.021846853613518163,0.010527235774018843,0.00014692204666549416
1917302.350389861,-0.26,-0.53,9.38,-0.002181661564992912,0.001090830782496456,-0.001090830782496456,,,,0.9997028498549184,-0.021958070056614057,0.010584663165203324,0.0001416228175396627
1917302.360275498,-0.29,-0.54,9.38,0.002181661564992912,-0.002181661564992912,-0.001090830782496456,,,,0.9997004713520956,-0.022039648646689634,0.010639677849804635,0.00013682536583964027
1917302.370030443,-0.24,-0.55,9.35,0.0,-0.001090830782496456,-0.001090830782496456,,,,0.9996978184552198,-0.022147011040811945,0.010666042799627753,0.00013118242734370497
1917302.378307995,-0.24,-0.55,9.35,0.0,0.0,-0.001090830782496456,,,,0.9996955092210915,-0.022238093602992448,0.01069299234124756,0.00012629678196649261
1917302.38138256,-0.27,-0.56,9.39,0.0,0.0,-0.001090830782496456,,,,0.9996946381747028,-0.022269844265190363,0.010708357023674819,0.00012462346402014384
1917302.390667793,-0.25,-0.55,9.39,0.0,0.0,0.001090830782496456,,,,0.9996920103533925,-0.022369695646732832,0.010745436136190922,0.0001294392067810337
1917302.400315182,-0.29,-0.56,9.36,0.001090830782496456,-0.001090830782496456,-0.002181661564992912,,,,0.9996894506984174,-0.02245823647863843,0.010798867819291952,0.00011929118797248673
1917302.410331447,-0.28,-0.55,9.36,0.001090830782496456,0.0,0.0,,,,0.9996867151767347,-0.022551282898048947,0.010858032017815303,0.00011949687217417172
1917302.420478853,-0.27,-0.55,9.39,0.0,0.0,-0.001090830782496456,,,,0.9996837959819461,-0.022654540031179997,0.01091177610934512,0.00011405806351798243
1917302.428239332,-0.27,-0.55,9.39,0.0,-0.002181661564992912,0.0,,,,0.9996816465248153,-0.02273345877140325,0.010944513887884469,0.00011432183148349963
1917302.432120483,-0.28,-0.55,9.39,0.0,-0.002181661564992912,0.0,,,,0.9996805733186452,-0.02277155362210165,0.010963327914989033,0.00011452497177070213
1917302.438134281,-0.28,-0.55,9.39,-0.002181661564992912,-0.006544984694978736,0.0,,,,0.9996789012658536,-0.02283712009373197,0.01097939142093389,0.00011521174577830248
1917302.441219695,-0.28,-0.56,9.38,-0.002181661564992912,-0.006544984694978736,0.0,,,,0.9996780393209674,-0.022871334660715253,0.010986646508366374,0.00011553667878709081
1917302.45045331,-0.26,-0.56,9.36,0.001090830782496456,-0.003272492347489368,-0.001090830782496456,,,,0.9996756324183209,-0.022964319377990088,0.011011709403672675,0.0001106369963777994
1917302.459943574,-0.29,-0.5700000000000001,9.39,0.001090830782496456,0.0,-0.002181661564992912,,,,0.9996729853599026,-0.02305262586153873,0.011067460619518835,0.00010048852465121407
1917302.47070188,-0.26,-0.54,9.38,0.0,0.001090830782496456,0.0,,,,0.9996697556559391,-0.023163602296582226,0.011127312409373345,0.00010036924402478359
1917302.480298931,-0.28,-0.52,9.41,0.001090830782496456,0.003272492347489368,0.0,,,,0.9996669541092006,-0.023242624265706134,0.01121388195873594,0.00010065133892302381
1917302.490339741,-0.27,-0.54,9.370000000000001,-0.001090830782496456,-0.001090830782496456,0.001090830782496456,,,,0.9996639148819686,-0.023347973426991988,0.011265792126484295,0.00010652451157175566
1917302.500212866,-0.26,-0.55,9.35,0.002181661564992912,-0.003272492347489368,0.001090830782496456,,,,0.9996614084398481,-0.02344102811786773,0.011294871516235313,0.00011204583130882269
1917302.510301037,-0.28,-0.53,9.39,0.0,0.002181661564992912,0.0,,,,0.9996583237964625,-0.023533297661201096,0.011375716932937386,0.00011238281942901418
1917302.520032461,-0.26,-0.56,9.38,0.0,0.001090830782496456,0.0,,,,0.9996553468706689,-0.023637221394583463,0.011421763698811802,0.00011203407748862238
1917302.530398498,-0.28,-0.55,9.39,-0.001090830782496456,0.0,-0.001090830782496456,,,,0.9996521001888061,-0.023744111004556496,0.011484092537832615,0.00010676748044506957
1917302.540404299,-0.27,-0.55,9.38,0.0,-0.003272492347489368,0.0,,,,0.9996492556261446,-0.023845877726474594,0.011520778604554001,0.00010724688273893908
1917302.550437077,-0.26,-0.56,9.36,-0.002181661564992912,0.0,0.0,,,,0.9996459477154213,-0.02396406154374276,0.011562503759755007,0.00010713202529531469
1917302.558762214,-0.27,-0.54,9.38,0.001090830782496456,-0.001090830782496456,0.0,,,,0.9996435717951505,-0.02404187359630912,0.011606297820590538,0.00010739419245043464
1917302.570626828,-0.28,-0.54,9.41,0.0,-0.001090830782496456,0.001090830782496456,,,,0.9996400515544182,-0.024153071450706463,0.011678327458559342,0.00011461041853738092
1917302.580492913,-0.28,-0.56,9.39,-0.001090830782496456,-0.004363323129985824,-0.001090830782496456,,,,0.9996371376000948,-0.02425681848983231,0.011712718865657333,0.00011001915624614458
1917302.590595517,-0.27,-0.55,9.38,-0.003272492347489368,-0.002181661564992912,-0.001090830782496456,,,,0.9996337381444402,-0.02437582729148664,0.0117557460036976,0.00010508627350809255
1917302.600291932,-0.29,-0.54,9.370000000000001,0.001090830782496456,0.001090830782496456,0.0,,,,0.9996308805982071,-0.024455721960832025,0.011832542358920508,0.0001056368873231071
1917302.610415016,-0.27,-0.55,9.39,0.0,-0.003272492347489368,0.0,,,,0.9996279170513724,-0.024558463056204814,0.011870049554257942,0.00010614815678660132
1917302.621203307,-0.3,-0.56,9.38,0.0,0.002181661564992912,0.0,,,,0.9996244680367977,-0.024656032184548496,0.01195791043414173,0.00010656975607190135
1917302.628981611,-0.3,-0.56,9.38,-0.002181661564992912,0.0,0.0,,,,0.9996218620497688,-0.024734936371716372,0.012012674449583456,0.00010717933008245403
1917302.63207656,-0.26,-0.55,9.36,-0.002181661564992912,0.0,0.0,,,,0.9996208037849006,-0.02477123866005212,0.012025925915575667,0.00010715199114476703
1917302.638154424,-0.26,-0.55,9.36,0.001090830782496456,0.001090830782496456,0.002181661564992912,,,,0.999618927511388,-0.024832501522774234,0.01205544446547761,0.00011352463871647479
1917302.641478117,-0.28,-0.55,9.36,0.001090830782496456,0.001090830782496456,0.002181661564992912,,,,0.9996179040254831,-0.02486277595764247,0.012077855217003807,0.00011720382719077758
1917302.648246916,-0.28,-0.55,9.36,-0.001090830782496456,-0.001090830782496456,0.0,,,,0.9996157214467013,-0.024931920510973274,0.012115896562174638,0.0001175870744113183
1917302.652034848,-0.26,-0.56,9.370000000000001,-0.001090830782496456,-0.001090830782496456,0.0,,,,0.9996144969865804,-0.024974944392120793,0.012128303840414478,0.00011752800045952713
1917302.658248397,-0.26,-0.56,9.370000000000001,-0.001090830782496456,0.002181661564992912,0.001090830782496456,,,,0.9996123600268176,-0.025045466193441536,0.012158937805543692,0.00012056620651275793
1917302.661616987,-0.27,-0.56,9.370000000000001,-0.001090830782496456,0.002181661564992912,0.001090830782496456,,,,0.9996111924831718,-0.02508232510633012,0.01217891082706239,0.00012231393307914954
1917302.668448124,-0.27,-0.56,9.370000000000001,0.001090830782496456,-0.001090830782496456,0.0,,,,0.9996091438713856,-0.025149682427925684,0.012208112051110484,0.0001223218608733092
1917302.671612836,-0.29,-0.55,9.38,0.001090830782496456,-0.001090830782496456,0.0,,,,0.9996082152829273,-0.025176557933936323,0.012228730485175317,0.00012255693015705127
1917302.678823345,-0.29,-0.55,9.38,0.001090830782496456,0.001090830782496456,0.0,,,,0.9996059987482271,-0.02523778889216462,0.012283573392769032,0.00012289466444515744
1917302.683320325,-0.29,-0.52,9.36,0.001090830782496456,0.001090830782496456,0.0,,,,0.9996047257080231,-0.025267226486950026,0.012326571778719127,0.00012343431218888863
1917302.688702422,-0.29,-0.52,9.36,0.0,0.003272492347489368,-0.001090830782496456,,,,0.9996030512879365,-0.025305470744858827,0.012383794147985596,0.00012103193255957378
1917302.691771675,-0.28,-0.54,9.38,0.0,0.003272492347489368,-0.001090830782496456,,,,0.9996020119391578,-0.025333898383854688,0.012409555276719749,0.00011940560514160235
1917302.700877574,-0.27,-0.55,9.41,0.0,0.002181661564992912,-0.002181661564992912,,,,0.9995989370712195,-0.025427536175195706,0.01246569197892479,0.00010924117337005099
1917302.710488546,-0.26,-0.53,9.370000000000001,0.001090830782496456,0.001090830782496456,-0.001090830782496456,,,,0.9995958775127675,-0.02552124559429124,0.012519461126133833,0.00010380706871518066
1917302.72083087,-0.28,-0.56,9.35,0.001090830782496456,-0.004363323129985824,0.0,,,,0.9995929301460117,-0.025619335964961108,0.012554390095740003,0.00010448037702684028
1917302.728691064,-0.28,-0.56,9.35,-0.001090830782496456,-0.002181661564992912,0.002181661564992912,,,,0.9995903541950891,-0.025702196177492528,0.012589997538600682,0.00011346262910932905
1917302.731816479,-0.29,-0.54,9.38,-0.001090830782496456,-0.002181661564992912,0.002181661564992912,,,,0.9995893706559607,-0.025730046012529973,0.012611147825800577,0.00011727885365683027
1917302.740856168,-0.3,-0.55,9.38,-0.002181661564992912,0.0,0.0,,,,0.9995862731794461,-0.025815224613866785,0.012682375872307377,0.00011828607221881045
1917302.750428035,-0.27,-0.56,9.4,0.0,-0.002181661564992912,0.001090830782496456,,,,0.9995832466114584,-0.025916310462928725,0.012714663626828916,0.00012359021903312928
1917302.758890329,-0.27,-0.56,9.4,0.001090830782496456,0.0,0.0,,,,0.9995805640799579,-0.026001038892208467,0.0127525161612774,0.0001233761546668035
1917302.764144198,-0.26,-0.56,9.39,0.001090830782496456,0.0,0.0,,,,0.9995789198906874,-0.026056144347530837,0.012768912108490403,0.00012302631033052805
1917302.769063463,-0.28,-0.56,9.370000000000001,0.0,0.0,0.002181661564992912,,,,0.9995772832498115,-0.026105135262955506,0.012796882998778507,0.00012848869390559323
1917302.778746406,-0.28,-0.56,9.370000000000001,0.002181661564992912,0.001090830782496456,0.0,,,,0.9995742625884628,-0.026191148338496506,0.012856937056159583,0.00012840940597284942
1917302.783616902,-0.27,-0.56,9.39,0.002181661564992912,0.001090830782496456,0.0,,,,0.9995727392811905,-0.026237381020947203,0.012881082840485478,0.00012817143000023323
1917302.788660331,-0.27,-0.56,9.39,0.001090830782496456,0.0,0.0,,,,0.999571122341427,-0.026288030127070122,0.012903273283495746,0.00012803011253731644
1917302.79170968,-0.28,-0.56,9.41,0.001090830782496456,0.0,0.0,,,,0.9995701431179332,-0.02631675629630453,0.012920562026309763,0.00012807091688033035
1917302.800777786,-0.26,-0.56,9.39,0.0,-0.001090830782496456,-0.002181661564992912,,,,0.9995672154181865,-0.026417513567720926,0.012941521720095316,0.00011770131875293705
1917302.810580156,-0.27,-0.56,9.370000000000001,-0.001090830782496456,-0.002181661564992912,-0.002181661564992912,,,,0.9995639051538112,-0.026526571700593197,0.012974167438399057,0.00010717628665892147
1917302.820366398,-0.28,-0.52,9.36,-0.002181661564992912,-0.003272492347489368,-0.002181661564992912,,,,0.999561017758445,-0.02659648722730974,0.013053309031538816,9.883418639034018e-05
1917302.829137854,-0.29,-0.54,9.38,0.0,0.001090830782496456,0.002181661564992912,,,,0.9995581805443933,-0.026663746140424795,0.013133026499907894,0.0001093777575425023
1917302.840736635,-0.27,-0.54,9.38,0.0,0.002181661564992912,0.0,,,,0.9995540624553542,-0.02677809062748702,0.013213558727509856,0.00010934851984223538
1917302.850559134,-0.27,-0.54,9.38,0.0,-0.001090830782496456,0.002181661564992912,,,,0.9995507706773862,-0.0268750514946976,0.013265516886853295,0.00012044552875708506
1917302.860679691,-0.27,-0.53,9.370000000000001,-0.001090830782496456,0.002181661564992912,-0.001090830782496456,,,,0.9995470782372154,-0.026970478644675902,0.013349843892708201,0.00011548663727733562
1917302.870729333,-0.29,-0.53,9.4,0.0,0.001090830782496456,-0.001090830782496456,,,,0.9995441113359694,-0.02702810754437807,0.013455051097981523,0.00011178599019360051
1917302.879004293,-0.29,-0.53,9.4,0.001090830782496456,-0.001090830782496456,0.001090830782496456,,,,0.9995418991944743,-0.02707101499463827,0.01353284861688264,0.00011794140855517
1917302.882114443,-0.28,-0.54,9.4,0.001090830782496456,-0.001090830782496456,0.001090830782496456,,,,0.9995409156594594,-0.02709675195040168,0.013553950691859176,0.00011990425742985793
1917302.888333944,-0.28,-0.54,9.4,0.002181661564992912,0.002181661564992912,0.001090830782496456,,,,0.9995388992216573,-0.02714482670839647,0.013606324688889946,0.00012350785224081277
1917302.89161418,-0.27,-0.52,9.34,0.002181661564992912,0.002181661564992912,0.001090830782496456,,,,0.9995379102893402,-0.027164623922924028,0.013639403149078704,0.00012563153265458528
1917302.898377794,-0.27,-0.52,9.34,0.0,-0.001090830782496456,0.0,,,,0.9995358128855963,-0.027213173320535015,0.013696200233315234,0.00012671276875998342
1917302.901436679,-0.27,-0.56,9.370000000000001,0.0,-0.001090830782496456,0.0,,,,0.9995347899828742,-0.02724710375974928,0.013703391538972844,0.0001265342912264002
1917302.910803899,-0.27,-0.55,9.370000000000001,0.0,0.001090830782496456,-0.001090830782496456,,,,0.9995314737301938,-0.027349161232997236,0.013741972510326004,0.00012080614163548146
1917302.920923271,-0.27,-0.55,9.4,-0.002181661564992912,0.0,-0.001090830782496456,,,,0.9995276558757795,-0.02747078923841019,0.013777070782031981,0.00011488583550527069
1917302.930736202,-0.3,-0.56,9.39,-0.001090830782496456,0.001090830782496456,-0.002181661564992912,,,,0.999524114982592,-0.027558182676906236,0.013859260042520085,0.00010510416951663217
1917302.940471466,-0.29,-0.55,9.39,-0.001090830782496456,-0.002181661564992912,0.0,,,,0.9995207992789363,-0.02764547675957901,0.013924370653118164,0.00010642108123579297
1917302.950264716,-0.27,-0.56,9.36,-0.001090830782496456,-0.001090830782496456,-0.002181661564992912,,,,0.999517357733368,-0.02776077707386904,0.013942087559625964,9.508123490153283e-05
1917302.959242835,-0.27,-0.5700000000000001,9.39,0.001090830782496456,0.001090830782496456,0.001090830782496456,,,,0.9995143696904294,-0.02785743702946841,0.013963460229018402,9.880751797231447e-05
1917302.971195964,-0.28,-0.54,9.36,0.002181661564992912,0.001090830782496456,-0.002181661564992912,,,,0.9995105955418966,-0.02794036053667256,0.014067626576615271,8.680475244042529e-05
1917302.97873634,-0.28,-0.54,9.36,-0.002181661564992912,0.0,-0.001090830782496456,,,,0.9995077934476112,-0.02800971322250611,0.01412868725873249,8.366017847044407e-05
1917302.981818841,-0.27,-0.55,9.370000000000001,-0.002181661564992912,0.0,-0.001090830782496456,,,,0.9995066307819148,-0.02804777235916248,0.014135445138001157,8.172774383880484e-05
1917302.990908644,-0.27,-0.54,9.39,0.001090830782496456,-0.001090830782496456,0.001090830782496456,,,,0.999503597652561,-0.02814176197869881,0.014163053036718531,8.626123612519125e-05
1917303.000579586,-0.28,-0.55,9.38,0.0,0.0,0.0,,,,0.999503597652561,-0.02814176197869881,0.014163053036718531,8.626123612519125e-05
1917303.01050916,-0.28,-0.56,9.39,0.0,0.001090830782496456,0.001090830782496456,,,,0.9994999310233914,-0.028245798200551002,0.014214584945320253,9.134047200993745e-05
1917303.020698871,-0.29,-0.54,9.36,-0.002181661564992912,0.001090830782496456,-0.002181661564992912,,,,0.9994966687624958,-0.028304608558410896,0.014326599343293259,8.25729109565433e-05
1917303.028507928,-0.29,-0.54,9.36,-0.001090830782496456,0.001090830782496456,0.0,,,,0.9994942900740064,-0.028344742490813646,0.014412930728478046,8.432320954559514e-05
1917303.032332373,-0.28,-0.56,9.39,-0.001090830782496456,0.001090830782496456,0.0,,,,0.9994928213972908,-0.02838846263182312,0.014428724643241258,8.40824265663596e-05
1917303.038356795,-0.28,-0.56,9.39,-0.001090830782496456,0.001090830782496456,-0.001090830782496456,,,,0.9994905040816746,-0.028457398867333363,0.014453450570619994,8.041684021899023e-05
1917303.041409472,-0.28,-0.54,9.38,-0.001090830782496456,0.001090830782496456,-0.001090830782496456,,,,0.9994894702940152,-0.02847785959254669,0.01448461238951317,7.929906511729154e-05
1917303.050837046,-0.28,-0.55,9.38,-0.001090830782496456,-0.003272492347489368,0.0,,,,0.9994860879591657,-0.028578778430589046,0.014519195005625892,7.984914994696644e-05
1917303.060096262,-0.28,-0.5700000000000001,9.370000000000001,-0.001090830782496456,-0.002181661564992912,0.001090830782496456,,,,0.9994827882855801,-0.02868738335403879,0.014532131040547937,8.4407351216027e-05
1917303.069339126,-0.28,-0.56,9.38,0.0,0.0,-0.001090830782496456,,,,0.9994794139162749,-0.02878810142173776,0.014565031967481297,7.885364757559253e-05
1917303.078909168,-0.28,-0.56,9.38,-0.001090830782496456,0.0,-0.002181661564992912,,,,0.9994757576671595,-0.02889766552462196,0.014598977492687154,6.796361387011765e-05
1917303.082605386,-0.27,-0.56,9.39,-0.001090830782496456,0.0,-0.002181661564992912,,,,0.9994746877194971,-0.02894053760554272,0.014587320449159637,6.303355847244334e-05
1917303.088816758,-0.27,-0.56,9.39,-0.001090830782496456,-0.001090830782496456,0.0,,,,0.9994729348271784,-0.02901247516707198,0.014564512894159156,6.161804086037486e-05
1917303.092599922,-0.27,-0.53,9.38,-0.001090830782496456,-0.001090830782496456,0.0,,,,0.9994742766218898,-0.028972413473381458,0.014552174468163169,6.20235906083638e-05
1917303.098508533,-0.27,-0.53,9.38,0.002181661564992912,-0.003272492347489368,0.002181661564992912,,,,0.9994767398660029,-0.02890003599874429,0.014526858028451536,6.915142022654763e-05
1917303.101551961,-0.28,-0.56,9.36,0.002181661564992912,-0.003272492347489368,0.002181661564992912,,,,0.9994757814855596,-0.028928851224200035,0.014535423503537636,7.24862116876355e-05
1917303.11094811,-0.26,-0.56,9.38,-0.003272492347489368,-0.002181661564992912,0.0,,,,0.9994740210913796,-0.02902842215390805,0.01445776588591602,6.983030119798157e-05
1917303.12075752,-0.28,-0.54,9.36,0.0,0.002181661564992912,-0.002181661564992912,,,,0.9994738018040006,-0.028979950786796146,0.014569765137209686,6.247958708679118e-05
1917303.130923326,-0.29,-0.54,9.39,-0.001090830782496456,0.003272492347489368,-0.001090830782496456,,,,0.9994728010045423,-0.02894999903440172,0.01469741387045,6.0279046389750084e-05
1917303.140620477,-0.27,-0.55,9.370000000000001,-0.001090830782496456,-0.001090830782496456,0.0,,,,0.999471399346699,-0.029038425535214154,0.014618086916849342,5.714261692005164e-05
1917303.150423711,-0.28,-0.55,9.38,-0.001090830782496456,-0.001090830782496456,-0.003272492347489368,,,,0.9994679690036222,-0.029115639576926495,0.014698865090251685,4.281191256790846e-05
1917303.158914646,-0.28,-0.55,9.38,-0.001090830782496456,0.001090830782496456,0.002181661564992912,,,,0.9994648936681513,-0.02917964533865654,0.01478079072211235,5.337087668518809e-05
1917303.162174273,-0.29,-0.55,9.370000000000001,-0.001090830782496456,0.001090830782496456,0.002181661564992912,,,,0.999464073592022,-0.02918811018094176,0.014819462661181728,5.787348419729689e-05
1917303.168980833,-0.29,-0.55,9.370000000000001,0.001090830782496456,-0.001090830782496456,0.0,,,,0.9994626880600441,-0.02919831950584108,0.01489260615385435,5.996475638518826e-05
1917303.172760733,-0.27,-0.55,9.39,0.001090830782496456,-0.001090830782496456,0.0,,,,0.999463323939265,-0.02919963752722407,0.014847283428427466,5.868007128185732e-05
1917303.17917416,-0.27,-0.54,9.39,0.0,-0.001090830782496456,0.001090830782496456,,,,0.9994656600128441,-0.029147852179025067,0.014791666017566197,6.152125209022254e-05
1917303.191092856,-0.27,-0.56,9.370000000000001,-0.002181661564992912,-0.001090830782496456,-0.001090830782496456,,,,0.9994629757238744,-0.029278448998610776,0.014714955532221928,5.1624593295349534e-05
1917303.200844889,-0.29,-0.54,9.36,0.0,-0.001090830782496456,0.002181661564992912,,,,0.9994634191360166,-0.02921812825697531,0.014804405610835646,6.606521223258158e-05
1917303.210893923,-0.28,-0.55,9.39,0.0,0.001090830782496456,-0.001090830782496456,,,,0.9994607800350986,-0.0292492030005705,0.014920767387685486,6.321413006213322e-05
1917303.220825001,-0.28,-0.55,9.370000000000001,0.0,-0.002181661564992912,0.0,,,,0.9994577966872076,-0.029362462674354033,0.014898142342379144,6.149468296958847e-05
1917303.229080025,-0.28,-0.55,9.370000000000001,-0.003272492347489368,0.001090830782496456,-0.003272492347489368,,,,0.9994596208216833,-0.029285074391674923,0.014928102581565043,5.0181326887952626e-05
1917303.232207872,-0.26,-0.54,9.35,-0.003272492347489368,0.001090830782496456,-0.003272492347489368,,,,0.9994603539444739,-0.02927603977977715,0.01489672520885869,4.434018264481259e-05
1917303.238413547,-0.26,-0.54,9.35,-0.002181661564992912,-0.001090830782496456,0.002181661564992912,,,,0.999462009709951,-0.029254227628543975,0.014828311785295353,4.981968628852316e-05
1917303.24169948,-0.26,-0.56,9.39,-0.002181661564992912,-0.001090830782496456,0.002181661564992912,,,,0.9994619241084834,-0.029274990086443454,0.014793055151326472,5.2269461738831845e-05
1917303.248553817,-0.26,-0.56,9.39,-0.002181661564992912,-0.002181661564992912,0.001090830782496456,,,,0.9994618009745487,-0.029318202494694513,0.01471558717459492,5.3752195356850566e-05
1917303.252129966,-0.28,-0.53,9.36,-0.002181661564992912,-0.002181661564992912,0.001090830782496456,,,,0.9994627992343359,-0.029281906873905375,0.01472004282155466,5.6708247081740017e-05
1917303.261144183,-0.29,-0.5700000000000001,9.370000000000001,0.0,-0.001090830782496456,-0.001090830782496456,,,,0.9994595059407392,-0.02936776371735295,0.0147725318509359,5.2360752951602184e-05
1917303.270970842,-0.27,-0.55,9.39,-0.001090830782496456,0.0,0.0,,,,0.9994618986276205,-0.0293403923773647,0.014664654491534708,4.9753978232480544e-05
1917303.280822046,-0.27,-0.53,9.39,-0.001090830782496456,0.001090830782496456,0.0,,,,0.9994652864870787,-0.029236710225776886,0.014640810787748414,5.041778510996586e-05
1917303.290712067,-0.28,-0.55,9.38,0.0,0.0,0.0,,,,0.9994652864870787,-0.029236710225776886,0.014640810787748414,5.041778510996586e-05
1917303.300278717,-0.3,-0.56,9.370000000000001,-0.001090830782496456,0.0,0.0,,,,0.9994623534527054,-0.029286566708721953,0.01474103986516613,5.277204367575948e-05
1917303.310751189,-0.29,-0.54,9.39,-0.001090830782496456,0.0,0.0,,,,0.9994631238146703,-0.029214063023248853,0.014832378196380154,5.6686279228496464e-05
1917303.320667291,-0.29,-0.55,9.38,0.0,0.002181661564992912,0.0,,,,0.9994609608470214,-0.02922477822436417,0.014956488141100947,5.952285863024852e-05
1917303.330672708,-0.27,-0.54,9.39,0.0,0.0,-0.001090830782496456,,,,0.9994644368747042,-0.029150425298795923,0.014869073863873155,5.263136338021127e-05
1917303.340791857,-0.27,-0.56,9.38,0.002181661564992912,0.002181661564992912,0.0,,,,0.9994629576449866,-0.029231470548767374,0.014809289396192554,4.8710082959575895e-05
1917303.350718551,-0.29,-0.55,9.34,0.002181661564992912,0.0,0.001090830782496456,,,,0.9994608530378525,-0.029246993719548278,0.014920233775087641,5.680945134000768e-05
1917303.359308177,-0.29,-0.55,9.34,0.001090830782496456,0.003272492347489368,-0.001090830782496456,,,,0.9994586300465946,-0.029266974544898253,0.015029574267190739,5.407143061582253e-05
1917303.3643846,-0.26,-0.56,9.36,0.001090830782496456,0.003272492347489368,-0.001090830782496456,,,,0.9994585832722749,-0.029290933524677102,0.014985964292551838,4.910043367764891e-05
1917303.369329467,-0.26,-0.56,9.36,0.001090830782496456,0.001090830782496456,-0.001090830782496456,,,,0.9994586178883883,-0.02931421751572777,0.014938065714252538,4.441610009959413e-05
1917303.372440193,-0.27,-0.55,9.39,0.001090830782496456,0.001090830782496456,-0.001090830782496456,,,,0.9994593025215653,-0.02930806794018277,0.014904295355316163,4.167350853255896e-05
1917303.379398214,-0.27,-0.55,9.39,-0.001090830782496456,-0.001090830782496456,-0.001090830782496456,,,,0.99946071259972,-0.02930215919741256,0.014821138599273025,3.5869910877901085e-05
1917303.384383114,-0.28,-0.56,9.4,-0.001090830782496456,-0.001090830782496456,-0.001090830782496456,,,,0.9994589154712845,-0.029361727558322698,0.014824445231153692,3.260894104822626e-05
1917303.389137798,-0.28,-0.56,9.4,-0.002181661564992912,0.001090830782496456,0.0,,,,0.9994570395495296,-0.02942104707850134,0.014833309147838291,3.199092742200376e-05
1917303.392215531,-0.27,-0.56,9.39,-0.002181661564992912,0.001090830782496456,0.0,,,,0.9994567276361962,-0.029445187494035813,0.014806402837751332,3.08414311680349e-05
1917303.401293718,-0.29,-0.55,9.36,0.001090830782496456,-0.001090830782496456,0.001090830782496456,,,,0.9994559369670123,-0.029422595970050855,0.014904340813170621,3.914970965822075e-05
1917303.410892241,-0.28,-0.5700000000000001,9.370000000000001,0.001090830782496456,0.0,0.0,,,,0.9994528281668187,-0.029527390672213084,0.014905571631477614,3.7467010349994386e-05
1917303.420804759,-0.29,-0.56,9.41,0.001090830782496456,-0.002181661564992912,0.001090830782496456,,,,0.999450374539495,-0.029561903060532402,0.015001354463976624,4.565686241423459e-05
1917303.428952419,-0.29,-0.56,9.41,0.002181661564992912,-0.001090830782496456,0.002181661564992912,,,,0.999448406337789,-0.029586091249096398,0.01508453072823604,5.662299054926211e-05
1917303.432333234,-0.26,-0.55,9.39,0.002181661564992912,-0.001090830782496456,0.002181661564992912,,,,0.9994494097429489,-0.029572119061805523,0.015045385195394506,5.9354759386020254e-05
1917303.438972876,-0.26,-0.55,9.39,0.002181661564992912,-0.001090830782496456,0.001090830782496456,,,,0.9994513707587416,-0.029544920483652235,0.0149683475809878,6.109649787562053e-05
1917303.44278881,-0.27,-0.54,9.38,0.002181661564992912,-0.001090830782496456,0.001090830782496456,,,,0.999452951302305,-0.02950568081497079,0.014940179813160903,6.292779794548507e-05
1917303.448796687,-0.27,-0.54,9.38,0.001090830782496456,0.0,-0.001090830782496456,,,,0.9994552897333284,-0.029447314933319525,0.014898857718771797,5.9211166544534104e-05
1917303.452095259,-0.27,-0.53,9.38,0.001090830782496456,0.0,-0.001090830782496456,,,,0.9994565875886066,-0.029410798014308407,0.014883923662094204,5.7465821590738516e-05
1917303.458737206,-0.27,-0.53,9.38,0.0,-0.001090830782496456,0.0,,,,0.9994591436003367,-0.02934084754705543,0.014850306595301496,5.773151287774076e-05
1917303.462485169,-0.28,-0.56,9.36,0.0,-0.001090830782496456,0.0,,,,0.9994578298570206,-0.02938330856382972,0.014854771157340296,5.7351554672097404e-05
1917303.468869795,-0.28,-0.56,9.36,0.002181661564992912,-0.002181661564992912,0.0,,,,0.999455841528723,-0.029448632216185794,0.014859195077478115,5.671293926930871e-05
1917303.472194,-0.27,-0.5700000000000001,9.38,0.002181661564992912,-0.002181661564992912,0.0,,,,0.9994552951838468,-0.029478341935809733,0.014837020609348736,5.572363054641051e-05
1917303.479467935,-0.29,-0.55,9.38,0.001090830782496456,0.003272492347489368,0.0,,,,0.9994548734892311,-0.029446805736511015,0.01492776342536563,5.804875242392888e-05
1917303.489089563,-0.29,-0.55,9.38,0.0,0.0,-0.002181661564992912,,,,0.9994543858682641,-0.02941045472054587,0.015031736518983823,5.117661417878666e-05
1917303.492171713,-0.28,-0.55,9.34,0.0,0.0,-0.002181661564992912,,,,0.9994551220887842,-0.029403151577407662,0.01499704662083392,4.690908338264754e-05
1917303.501234827,-0.29,-0.56,9.370000000000001,0.002181661564992912,0.0,0.0,,,,0.9994521703360103,-0.029465000931212924,0.015072180892582193,4.7894713604345265e-05
1917303.510845159,-0.27,-0.56,9.36,0.002181661564992912,0.0,0.001090830782496456,,,,0.9994522412462207,-0.029510848938844755,0.0149774774088744,4.9328305143025816e-05
1917303.520711019,-0.28,-0.5700000000000001,9.41,0.0,0.0,-0.002181661564992912,,,,0.9994492346107733,-0.029622474611123533,0.014957777710037116,3.632946486150452e-05
1917303.529700338,-0.27,-0.5700000000000001,9.39,0.003272492347489368,0.001090830782496456,-0.001090830782496456,,,,0.9994483403381951,-0.029684827060561275,0.014893799401521848,2.7874708580497826e-05
1917303.541447317,-0.28,-0.55,9.370000000000001,0.001090830782496456,-0.002181661564992912,0.001090830782496456,,,,0.9994525880122996,-0.02954387759121461,0.014888997891989405,3.679897084108183e-05
1917303.550954893,-0.25,-0.56,9.34,0.002181661564992912,0.0,0.001090830782496456,,,,0.9994536739248283,-0.029560207070971657,0.014783313877451566,3.8299935948756574e-05
1917303.559467845,-0.29,-0.54,9.39,0.002181661564992912,0.001090830782496456,-0.001090830782496456,,,,0.9994553323319767,-0.02947254913072556,0.014846083844234876,3.6268512607448024e-05
1917303.571316106,-0.27,-0.55,9.36,0.001090830782496456,0.0,-0.002181661564992912,,,,0.9994586315422218,-0.02942593117839504,0.014715910061782165,2.002716123922328e-05
1917303.579352915,-0.27,-0.55,9.36,0.002181661564992912,-0.002181661564992912,-0.001090830782496456,,,,0.9994610781853961,-0.029391355239618507,0.014618524071980192,1.3550684756039654e-05
1917303.582472729,-0.28,-0.55,9.370000000000001,0.002181661564992912,-0.002181661564992912,-0.001090830782496456,,,,0.9994610292147408,-0.029377655243525088,0.014649378240642654,1.3060103680925513e-05
1917303.58871399,-0.28,-0.55,9.370000000000001,0.001090830782496456,-0.003272492347489368,0.001090830782496456,,,,0.9994608426669715,-0.029354595981178906,0.014708205472363789,1.9026078171108377e-05
1917303.592525444,-0.26,-0.54,9.38,0.001090830782496456,-0.003272492347489368,0.001090830782496456,,,,0.9994622594114091,-0.029327298577818257,0.01466632697382846,2.0578277708819294e-05
1917303.598933942,-0.26,-0.54,9.38,0.001090830782496456,-0.001090830782496456,-0.001090830782496456,,,,0.9994645359151898,-0.02928139921321638,0.014602768640259486,1.5999679116720487e-05
1917303.601988667,-0.28,-0.56,9.35,0.001090830782496456,-0.001090830782496456,-0.001090830782496456,,,,0.9994634638476183,-0.029310292585201233,0.014618172748963782,1.4414304346688398e-05
1917303.611209322,-0.29,-0.56,9.370000000000001,0.001090830782496456,-0.001090830782496456,0.001090830782496456,,,,0.99946071951988,-0.02936151077741178,0.014702767336638787,2.1314699434591377e-05
1917303.621281269,-0.27,-0.55,9.370000000000001,0.0,-0.001090830782496456,0.0,,,,0.9994630856597523,-0.029340366757936436,0.014583653233209046,1.8449122900401396e-05
1917303.631233788,-0.27,-0.56,9.370000000000001,0.0,-0.001090830782496456,0.002181661564992912,,,,0.9994606770742329,-0.029446033173616572,0.01453565967268624,2.6655842903832484e-05
1917303.641105536,-0.26,-0.55,9.38,0.002181661564992912,0.001090830782496456,0.001090830782496456,,,,0.9994633159871652,-0.02940776305255314,0.014431307422814706,2.8883438588966734e-05
1917303.651238029,-0.27,-0.55,9.370000000000001,0.001090830782496456,0.001090830782496456,0.001090830782496456,,,,0.999467195129121,-0.029296324038163363,0.01438923496686215,3.4287709390347705e-05
1917303.661324249,-0.28,-0.55,9.36,0.0,-0.001090830782496456,0.0,,,,0.9994653742911044,-0.02930420379219778,0.014499234820726098,3.772083417529755e-05
1917303.671936694,-0.27,-0.54,9.38,0.001090830782496456,0.003272492347489368,-0.001090830782496456,,,,0.9994691566222443,-0.029180007768585415,0.014488998131826778,3.2258037099944876e-05
1917303.67936321,-0.27,-0.54,9.38,0.002181661564992912,-0.002181661564992912,0.001090830782496456,,,,0.9994722278262554,-0.029089744908247502,0.014458602251059745,3.696133679037879e-05
1917303.682574228,-0.26,-0.56,9.370000000000001,0.002181661564992912,-0.002181661564992912,0.001090830782496456,,,,0.999471885401527,-0.02911478200306785,0.014431851637309406,3.7671600556168135e-05
1917303.688841186,-0.26,-0.56,9.370000000000001,0.001090830782496456,0.001090830782496456,0.001090830782496456,,,,0.9994709548165581,-0.029167302096099353,0.014390186237515019,3.881445880538075e-05
1917303.691977673,-0.28,-0.54,9.39,0.001090830782496456,0.001090830782496456,0.001090830782496456,,,,0.9994713127667093,-0.029141101226449768,0.014418371869623149,4.157318688937733e-05
1917303.701344701,-0.28,-0.56,9.370000000000001,0.001090830782496456,-0.004363323129985824,-0.001090830782496456,,,,0.9994683063058147,-0.02922329542968183,0.014460369430240493,3.7554717276554456e-05
1917303.71160587,-0.29,-0.55,9.36,0.001090830782496456,-0.002181661564992912,0.001090830782496456,,,,0.9994665581471405,-0.02923040399647847,0.014566415246308013,4.663242900119411e-05
1917303.721532948,-0.27,-0.56,9.4,0.0,0.0,-0.001090830782496456,,,,0.9994641968659396,-0.02933433016979205,0.014519462343632444,3.833880479493106e-05
1917303.729298515,-0.27,-0.56,9.4,-0.001090830782496456,0.003272492347489368,-0.001090830782496456,,,,0.9994620307897902,-0.029419878680401985,0.01449547354031276,3.154078294573763e-05
1917303.732543966,-0.26,-0.54,9.41,-0.001090830782496456,0.003272492347489368,-0.001090830782496456,,,,0.9994630739017487,-0.029394182001691985,0.014475673134490042,2.9302261885402915e-05
1917303.738999186,-0.26,-0.54,9.41,0.001090830782496456,-0.001090830782496456,0.0,,,,0.9994655534995232,-0.029336110425674636,0.01442217635180159,2.8675113296382142e-05
1917303.742469668,-0.27,-0.55,9.370000000000001,0.001090830782496456,-0.001090830782496456,0.0,,,,0.9994668370599369,-0.02930798117721503,0.01439038085811928,2.8204252337181833e-05
1917303.749007387,-0.27,-0.55,9.370000000000001,0.0,-0.003272492347489368,-0.001090830782496456,,,,0.9994692283612832,-0.029259771984336436,0.014322245909377435,2.396741904610371e-05
1917303.752100097,-0.28,-0.5700000000000001,9.370000000000001,0.0,-0.003272492347489368,-0.001090830782496456,,,,0.9994681459341711,-0.029291026542405788,0.014333894166902946,2.2472535136729005e-05
1917303.761420499,-0.27,-0.55,9.38,0.001090830782496456,0.0,-0.001090830782496456,,,,0.9994685047368688,-0.029233119101931358,0.014426792914398771,2.0804452072291815e-05
1917303.769310455,-0.27,-0.55,9.38,0.001090830782496456,0.001090830782496456,-0.002181661564992912,,,,0.9994682038059959,-0.02927866966754078,0.014355103651376709,9.081491376022611e-06
1917303.772447198,-0.29,-0.5700000000000001,9.370000000000001,0.001090830782496456,0.001090830782496456,-0.002181661564992912,,,,0.9994671200576332,-0.029302348968453868,0.014382219334584587,5.970227262203925e-06
1917303.779615305,-0.29,-0.5700000000000001,9.370000000000001,0.0,-0.001090830782496456,-0.001090830782496456,,,,0.9994646354344942,-0.029360396957612066,0.014436398338504897,3.049120849669491e-06
1917303.784601069,-0.27,-0.56,9.39,0.0,-0.001090830782496456,-0.001090830782496456,,,,0.9994631902941953,-0.029416481228246,0.014422270229154469,-7.312579442934641e-07
1917303.789338313,-0.27,-0.56,9.39,0.001090830782496456,-0.002181661564992912,0.0,,,,0.999461919086612,-0.029467231164955317,0.014406754676862109,-1.6907443022352161e-06
1917303.792430639,-0.29,-0.54,9.38,0.001090830782496456,-0.002181661564992912,0.0,,,,0.9994622052138141,-0.029444996474793556,0.014432343244339398,-4.656109785960626e-07
1917303.801513977,-0.28,-0.53,9.34,0.0,-0.001090830782496456,0.0,,,,0.9994643933335464,-0.029350951927590588,0.014472320953174687,2.3619320758774836e-06
1917303.811097716,-0.29,-0.54,9.35,0.001090830782496456,-0.001090830782496456,0.001090830782496456,,,,0.9994646787922727,-0.029295280341287935,0.014565104511733101,1.1267069181986687e-05
1917303.821040699,-0.28,-0.53,9.370000000000001,0.001090830782496456,-0.00545415391248228,0.001090830782496456,,,,0.9994678715567118,-0.029181578489273385,0.01457425131108295,2.0037266686041785e-05
1917303.829853693,-0.27,-0.54,9.4,0.0,-0.002181661564992912,0.0,,,,0.9994713011008696,-0.02909012477206268,0.01452179397682183,2.0400383125003204e-05
1917303.839708929,-0.27,-0.54,9.4,0.0,0.001090830782496456,-0.001090830782496456,,,,0.9994748873991793,-0.028987025507015082,0.014481076777482376,1.50339005741682e-05
1917303.842892041,-0.28,-0.56,9.38,0.0,0.001090830782496456,-0.001090830782496456,,,,0.9994736790482843,-0.02901948657174156,0.014499452158853794,1.3262464202525055e-05
1917303.848973425,-0.28,-0.56,9.38,0.0,0.001090830782496456,-0.002181661564992912,,,,0.9994713665996945,-0.029081603197586316,0.01453436134734896,6.559121432042686e-06
1917303.852760142,-0.27,-0.55,9.370000000000001,0.0,0.001090830782496456,-0.002181661564992912,,,,0.9994706444957998,-0.029117621311320025,0.014511888885600182,1.1372231666885025e-06
1917303.859141183,-0.27,-0.55,9.370000000000001,-0.001090830782496456,0.001090830782496456,0.001090830782496456,,,,0.9994693366572491,-0.0291813524194816,0.014473898809471298,2.4782240251448643e-06
1917303.862200452,-0.28,-0.53,9.38,-0.001090830782496456,0.001090830782496456,0.001090830782496456,,,,0.99946999657373,-0.0291508665484343,0.014489751667629718,4.999400182081663e-06
1917303.871586585,-0.25,-0.56,9.39,0.0,0.001090830782496456,0.0,,,,0.9994698595900228,-0.02920041829457485,0.014399143749784505,1.339860602768434e-06
1917303.879437211,-0.25,-0.56,9.39,-0.002181661564992912,0.004363323129985824,-0.002181661564992912,,,,0.9994693077606158,-0.029250394701027173,0.014335869119679346,-1.0532479880005574e-05
1917303.88251648,-0.27,-0.54,9.36,-0.002181661564992912,0.004363323129985824,-0.002181661564992912,,,,0.9994700630606598,-0.02921885105916442,0.014347529718920482,-1.338910437446855e-05
1917303.891601866,-0.28,-0.56,9.38,0.0,0.001090830782496456,0.0,,,,0.9994667496275013,-0.029294337786820803,0.014424215954753699,-1.2520387477145078e-05
1917303.901242119,-0.27,-0.5700000000000001,9.38,0.001090830782496456,0.002181661564992912,0.0,,,,0.9994635963753733,-0.02939945332868503,0.014428840881449592,-1.4669599998899876e-05
1917303.911444215,-0.27,-0.55,9.370000000000001,0.0,0.0,0.0,,,,0.9994635963753733,-0.02939945332868503,0.014428840881449592,-1.4669599998899876e-05
1917303.921398814,-0.3,-0.54,9.39,-0.002181661564992912,0.001090830782496456,-0.001090830782496456,,,,0.9994630833086505,-0.02936302089383493,0.014538151178003215,-1.6354791158066397e-05
1917303.929881813,-0.3,-0.54,9.39,0.0,0.0,-0.001090830782496456,,,,0.999462999609636,-0.029322034414956327,0.014626359516949744,-1.7786450915260858e-05
1917303.938761017,-0.27,-0.55,9.38,0.0,0.0,-0.001090830782496456,,,,0.999465044616957,-0.02930204407067561,0.01452632657786136,-2.5263760594875034e-05
1917303.942016836,-0.28,-0.56,9.39,-0.001090830782496456,0.001090830782496456,-0.001090830782496456,,,,0.9994637681619211,-0.029333426845295135,0.014550789715395553,-2.6828044778862318e-05
1917303.951554013,-0.28,-0.56,9.38,0.0,0.0,-0.003272492347489368,,,,0.9994602407362821,-0.029421092531673694,0.014615907656709158,-4.177303333394933e-05
1917303.960086518,-0.29,-0.55,9.39,0.0,0.003272492347489368,0.001090830782496456,,,,0.9994592756611109,-0.02939922277779191,0.014725515662776393,-3.440195773741572e-05
1917303.969886424,-0.29,-0.55,9.39,0.001090830782496456,0.0,0.0,,,,0.9994585620273204,-0.029368371948269762,0.014835112596589291,-3.088099040403253e-05
1917303.973013215,-0.29,-0.54,9.39,0.001090830782496456,0.0,0.0,,,,0.9994590500542267,-0.029339746468489775,0.014858857738482407,-2.9808975824896816e-05
1917303.979779357,-0.29,-0.54,9.39,0.001090830782496456,0.0,0.001090830782496456,,,,0.9994600982835122,-0.02927781660688094,0.014910426802008405,-2.3799747626738008e-05
1917303.985001929,-0.28,-0.5700000000000001,9.39,0.001090830782496456,0.0,0.001090830782496456,,,,0.9994584487473395,-0.029334783817095225,0.01490903098705866,-2.193155387268111e-05
1917303.989716804,-0.29,-0.55,9.370000000000001,0.0,0.001090830782496456,0.0,,,,0.99945770336168,-0.029331365742453024,0.014965619256160826,-2.0370519710124714e-05
1917304.001529096,-0.25,-0.56,9.39,0.0,0.001090830782496456,0.0,,,,0.9994585522077688,-0.0293658044569878,0.01484086675615612,-2.4925305489203483e-05
1917304.011383084,-0.28,-0.55,9.370000000000001,-0.001090830782496456,0.001090830782496456,0.0,,,,0.9994591660414076,-0.02929825555524969,0.014932755277883951,-2.137859243700257e-05
1917304.021556698,-0.26,-0.5700000000000001,9.370000000000001,-0.001090830782496456,0.004363323129985824,0.0,,,,0.9994575022156591,-0.02938587270115795,0.014871822168843214,-2.5608701428211063e-05
1917304.029631844,-0.26,-0.5700000000000001,9.370000000000001,-0.001090830782496456,0.00545415391248228,-0.001090830782496456,,,,0.9994561483157051,-0.029454565518453442,0.014826835160360529,-3.351390620167708e-05
1917304.032742474,-0.26,-0.56,9.39,-0.001090830782496456,0.00545415391248228,-0.001090830782496456,,,,0.9994561618190128,-0.029466999883655007,0.014801188482413505,-3.659743345121005e-05
1917304.041726769,-0.3,-0.54,9.38,-0.001090830782496456,0.002181661564992912,-0.002181661564992912,,,,0.9994561854082511,-0.0294172908732626,0.014898140116088648,-4.32197509055072e-05
1917304.051413008,-0.28,-0.55,9.370000000000001,-0.001090830782496456,-0.002181661564992912,0.001090830782496456,,,,0.9994591222762174,-0.029313032505551,0.01490663522376029,-3.536223542043842e-05
1917304.059760802,-0.28,-0.55,9.370000000000001,0.001090830782496456,0.002181661564992912,-0.001090830782496456,,,,0.9994601837530925,-0.029238710777886194,0.01498123807998084,-3.728099554347824e-05
1917304.065220053,-0.3,-0.55,9.35,0.001090830782496456,0.002181661564992912,-0.001090830782496456,,,,0.9994590294795969,-0.02924320616127628,0.015049311686132388,-3.8767059872483134e-05
1917304.069892271,-0.3,-0.55,9.35,0.0,0.001090830782496456,0.0,,,,0.9994579966720775,-0.029249755548003027,0.015105075012179626,-3.738309942280243e-05
1917304.072963412,-0.29,-0.56,9.38,0.0,0.001090830782496456,0.0,,,,0.9994568137568339,-0.029279973649831675,0.015124787015655282,-3.736085657518109e-05
1917304.079798549,-0.27,-0.5700000000000001,9.39,0.0,0.001090830782496456,0.0,,,,0.9994556357174306,-0.029342584362057535,0.0150812264541884,-3.980276072750187e-05
1917304.089403536,-0.27,-0.5700000000000001,9.39,0.001090830782496456,0.001090830782496456,-0.001090830782496456,,,,0.9994541324753677,-0.029425245437954276,0.01501964218525897,-4.855360983548578e-05
1917304.092477685,-0.27,-0.54,9.38,0.001090830782496456,0.001090830782496456,-0.001090830782496456,,,,0.9994552735429447,-0.02939798180166811,0.014997076036900949,-5.063131285290364e-05
1917304.101697348,-0.27,-0.54,9.35,0.0,0.001090830782496456,-0.001090830782496456,,,,0.9994584996343064,-0.029324157455663268,0.01492642149343219,-5.691798463120359e-05
1917304.111396515,-0.28,-0.53,9.39,0.001090830782496456,0.002181661564992912,0.0,,,,0.9994618062514495,-0.029207745483106708,0.014933262855260272,-5.575732869114807e-05
1917304.121605235,-0.27,-0.56,9.4,-0.001090830782496456,0.0,0.0,,,,0.9994606594158122,-0.029291418460375626,0.01484585992380186,-5.939538722340947e-05
1917304.131528857,-0.3,-0.56,9.39,-0.001090830782496456,0.002181661564992912,0.0,,,,0.9994574579511675,-0.029341947668874314,0.014961168951214042,-5.72398513711524e-05
1917304.14135398,-0.27,-0.56,9.39,0.001090830782496456,0.002181661564992912,-0.001090830782496456,,,,0.9994569200529709,-0.029401703808148227,0.014879527091007086,-6.667049706935201e-05
1917304.151229185,-0.27,-0.56,9.36,0.0,0.001090830782496456,-0.001090830782496456,,,,0.9994557266789723,-0.02948063272809577,0.014803275297942406,-7.578266199427892e-05
1917304.160973409,-0.29,-0.56,9.36,0.001090830782496456,-0.003272492347489368,0.001090830782496456,,,,0.9994530367222977,-0.029530995350351613,0.014884322944742364,-6.804903937960544e-05
1917304.170256754,-0.29,-0.56,9.41,-0.001090830782496456,0.0,0.001090830782496456,,,,0.9994503519186072,-0.02957089807473743,0.014985071949791713,-6.0460610303737825e-05
1917304.180127607,-0.26,-0.54,9.39,0.001090830782496456,0.001090830782496456,0.0,,,,0.9994537830091653,-0.029498007277937725,0.014899641090148703,-6.237534691868212e-05
1917304.191640209,-0.27,-0.56,9.370000000000001,-0.001090830782496456,0.0,-0.001090830782496456,,,,0.9994531100192509,-0.02957652267913842,0.014788673512470554,-7.290266912841443e-05
1917304.201554199,-0.26,-0.56,9.35,0.001090830782496456,0.003272492347489368,0.0,,,,0.9994534904568078,-0.029609061002291985,0.014697549468659856,-7.720027514538264e-05
1917304.21156576,-0.28,-0.55,9.38,0.0,0.0,0.0,,,,0.9994534904568078,-0.029609061002291985,0.014697549468659856,-7.720027514538264e-05
1917304.221600426,-0.28,-0.55,9.39,0.0,0.001090830782496456,0.001090830782496456,,,,0.9994556691290726,-0.02950647351002492,0.014755633806884789,-6.883107825341596e-05
1917304.231554097,-0.29,-0.56,9.36,0.003272492347489368,0.0,-0.001090830782496456,,,,0.9994531269976601,-0.029541427865590438,0.014857515124827391,-7.223971872692065e-05
1917304.24137698,-0.29,-0.54,9.38,-0.001090830782496456,0.0,0.001090830782496456,,,,0.999454691254896,-0.029455148982083554,0.01492348132439208,-6.34994823237875e-05
1917304.251490368,-0.29,-0.53,9.35,0.0,0.0,0.001090830782496456,,,,0.9994570066352358,-0.029350642597193954,0.014974266224366244,-5.493548879623214e-05
1917304.261113405,-0.26,-0.54,9.370000000000001,0.0,0.002181661564992912,-0.001090830782496456,,,,0.9994598035667189,-0.029299914003896543,0.014886644160193923,-6.260501408119659e-05
1917304.270557843,-0.26,-0.54,9.370000000000001,0.0,-0.004363323129985824,0.001090830782496456,,,,0.9994629881346087,-0.029250350509309384,0.01476986358010107,-5.894019942564652e-05
1917304.280144238,-0.26,-0.54,9.370000000000001,0.001090830782496456,0.001090830782496456,0.0,,,,0.9994659916184222,-0.029194031812002006,0.014677750217885716,-6.126422501705664e-05
1917304.283427482,-0.26,-0.54,9.38,0.001090830782496456,0.001090830782496456,0.0,,,,0.9994670274042384,-0.029174283777462676,0.014646448311332064,-6.20457163556435e-05
1917304.289541539,-0.26,-0.54,9.38,0.001090830782496456,0.0,0.001090830782496456,,,,0.9994689979958777,-0.02913762300879061,0.0145848332680581,-6.007542651210049e-05
1917304.293440963,-0.29,-0.55,9.36,0.001090830782496456,0.0,0.001090830782496456,,,,0.999468141728798,-0.029145061004176364,0.01462859722261729,-5.68466768616355e-05
1917304.299392359,-0.29,-0.55,9.36,0.0,-0.001090830782496456,-0.001090830782496456,,,,0.9994667794171213,-0.029159920081185176,0.014691919790610155,-5.826914053623353e-05
1917304.302719604,-0.27,-0.56,9.38,0.0,-0.001090830782496456,-0.001090830782496456,,,,0.9994660605451219,-0.029194084033971425,0.01467295304606167,-6.103065095412708e-05
1917304.309447665,-0.27,-0.56,9.38,0.002181661564992912,0.003272492347489368,0.0,,,,0.9994645972502809,-0.02925586267091925,0.014649549928138394,-6.347926579292251e-05
1917304.31329576,-0.27,-0.53,9.36,0.002181661564992912,0.003272492347489368,0.0,,,,0.9994660358074929,-0.02920888023751559,0.014645154884825753,-6.341076564189596e-05
1917304.319501308,-0.27,-0.53,9.36,-0.001090830782496456,0.001090830782496456,-0.001090830782496456,,,,0.9994681576114408,-0.029143441218648005,0.014630698961470168,-6.635228876022986e-05
1917304.322832553,-0.28,-0.53,9.39,-0.001090830782496456,0.001090830782496456,-0.001090830782496456,,,,0.9994690098945035,-0.029108361867031706,0.014642301443686891,-6.736728423244422e-05
1917304.330095192,-0.28,-0.56,9.39,0.0,0.001090830782496456,-0.002181661564992912,,,,0.9994662511708495,-0.029186523778523023,0.014674940185261477,-7.570186894199155e-05
1917304.339734101,-0.28,-0.56,9.39,0.0,-0.001090830782496456,0.0,,,,0.9994627363298157,-0.02929030110673626,0.014707521144154297,-7.596702052481946e-05
1917304.342871804,-0.27,-0.52,9.38,0.0,-0.001090830782496456,0.0,,,,0.9994639002247714,-0.029255089249383383,0.014698509557265439,-7.56127893895442e-05
1917304.349248718,-0.27,-0.52,9.38,-0.001090830782496456,-0.003272492347489368,0.001090830782496456,,,,0.9994662618089993,-0.02918693596439294,0.014673418512040131,-7.115986229359749e-05
1917304.353046667,-0.28,-0.5700000000000001,9.38,-0.001090830782496456,-0.003272492347489368,0.001090830782496456,,,,0.9994649198127246,-0.029231658912556302,0.014675809508523516,-6.925484441374802e-05
1917304.359356154,-0.28,-0.5700000000000001,9.38,0.001090830782496456,-0.002181661564992912,-0.001090830782496456,,,,0.9994628331203897,-0.02929909596513776,0.014683420401603607,-7.315667769034009e-05
1917304.362418719,-0.28,-0.56,9.39,0.001090830782496456,-0.002181661564992912,-0.001090830782496456,,,,0.9994617814589348,-0.02932964863636402,0.014693995927161068,-7.481639186610499e-05
1917304.371892566,-0.28,-0.56,9.4,-0.002181661564992912,-0.003272492347489368,-0.002181661564992912,,,,0.9994581407721119,-0.02943967303732107,0.01472152561946291,-8.473042210925675e-05
1917304.379475247,-0.28,-0.56,9.4,0.0,0.001090830782496456,0.0,,,,0.9994552144202681,-0.02951723560601067,0.014764822123883355,-8.48408233211825e-05
1917304.382790844,-0.29,-0.54,9.39,0.0,0.001090830782496456,0.0,,,,0.9994557082566841,-0.029487625130826742,0.014790543706004139,-8.375055094980958e-05
1917304.389446647,-0.29,-0.54,9.39,0.0,-0.001090830782496456,0.0,,,,0.9994568059001598,-0.029428117590001864,0.014834837959611897,-8.134907101137255e-05
1917304.393192914,-0.29,-0.54,9.370000000000001,0.0,-0.001090830782496456,0.0,,,,0.9994573244153334,-0.029396702573741995,0.014862172018088262,-7.995773185296265e-05
1917304.399382494,-0.29,-0.54,9.370000000000001,-0.002181661564992912,0.001090830782496456,-0.001090830782496456,,,,0.9994578744142266,-0.02935168012785181,0.014914072649539804,-8.112997348382537e-05
1917304.402652681,-0.28,-0.56,9.36,-0.002181661564992912,0.001090830782496456,-0.001090830782496456,,,,0.9994566193469846,-0.029392727823016395,0.014917326662150626,-8.342585619614998e-05
1917304.409489546,-0.28,-0.56,9.36,0.001090830782496456,0.001090830782496456,0.0,,,,0.9994543234689198,-0.02946731812396355,0.0149239837925966,-8.467362751623893e-05
1917304.413292999,-0.28,-0.54,9.35,0.001090830782496456,0.001090830782496456,0.0,,,,0.9994556087713269,-0.0294216800312335,0.01492795276288175,-8.405941509009159e-05
1917304.419516979,-0.28,-0.54,9.35,0.001090830782496456,0.002181661564992912,0.001090830782496456,,,,0.9994576609331026,-0.029346936638684182,0.014937702270807372,-7.976794607071718e-05
1917304.422823264,-0.29,-0.56,9.39,0.001090830782496456,0.002181661564992912,0.001090830782496456,,,,0.9994565001572849,-0.029370073402992407,0.014969871561723058,-7.763426757357894e-05
1917304.430261269,-0.27,-0.56,9.4,0.0,-0.002181661564992912,0.0,,,,0.9994564565177521,-0.029413137310675012,0.014887996678402035,-8.020864184800754e-05
1917304.44186133,-0.29,-0.56,9.4,0.001090830782496456,0.0,0.0,,,,0.999452874014838,-0.0294775959326987,0.015000595680430346,-7.8043201965002e-05
1917304.451832826,-0.29,-0.56,9.36,-0.002181661564992912,-0.001090830782496456,0.0,,,,0.9994491593917848,-0.029561215095592033,0.015083320091603373,-7.621116242440172e-05
1917304.461553209,-0.3,-0.55,9.38,0.0,0.001090830782496456,-0.002181661564992912,,,,0.9994485137947879,-0.02952619962848265,0.015194238045954387,-8.330120986085429e-05
1917304.471831179,-0.27,-0.53,9.36,0.0,-0.002181661564992912,0.0,,,,0.9994525750169932,-0.02942647454409202,0.015120381874844319,-8.330525985527714e-05
1917304.48146772,-0.26,-0.55,9.4,0.0,-0.003272492347489368,0.0,,,,0.9994549916032694,-0.029408259126959033,0.01499555589918108,-8.577706408457883e-05
1917304.491647926,-0.27,-0.56,9.35,0.001090830782496456,0.003272492347489368,-0.001090830782496456,,,,0.9994540223007599,-0.02947815517628839,0.014922684862309027,-9.565947532393157e-05
1917304.501352405,-0.27,-0.5700000000000001,9.36,0.001090830782496456,0.003272492347489368,0.0,,,,0.9994518996589011,-0.02956972914474945,0.014883599406547668,-9.927348875264614e-05
1917304.511505667,-0.27,-0.56,9.34,0.001090830782496456,0.001090830782496456,-0.001090830782496456,,,,0.9994511881097359,-0.029636791604301396,0.014797679695441796,-0.00010883506693553666
1917304.521297637,-0.26,-0.56,9.38,-0.002181661564992912,-0.001090830782496456,0.001090830782496456,,,,0.9994520221635609,-0.02966634727879686,0.01468168373175959,-0.00010674785032892931
1917304.529583317,-0.26,-0.56,9.38,0.0,0.002181661564992912,0.0,,,,0.9994528204117347,-0.029681338641954734,0.014596773684403548,-0.00011002480131386322
1917304.5327031,-0.27,-0.54,9.39,0.0,0.002181661564992912,0.0,,,,0.9994539258045108,-0.029646617841292675,0.014591647358829332,-0.00010987210518644376
1917304.541980365,-0.27,-0.55,9.35,0.0,0.001090830782496456,-0.002181661564992912,,,,0.9994573456880048,-0.029556012644896292,0.014541037018217115,-0.00012045438032331758
1917304.55164049,-0.27,-0.55,9.38,-0.001090830782496456,0.001090830782496456,0.0,,,,0.9994607465178228,-0.029465776827513075,0.01449032689027717,-0.00012079983674820345
1917304.562747384,-0.27,-0.56,9.39,-0.001090830782496456,0.001090830782496456,0.0,,,,0.9994577763038633,-0.029588477485727228,0.014445067893134106,-0.00012409422280947207
1917304.572051689,-0.28,-0.56,9.41,-0.001090830782496456,-0.001090830782496456,-0.002181661564992912,,,,0.9994553498572045,-0.029622697523145634,0.01454242652901367,-0.0001313922123902862
1917304.57967082,-0.28,-0.56,9.41,0.0,0.001090830782496456,-0.001090830782496456,,,,0.9994534017227235,-0.029644766552119832,0.014631055454531501,-0.00013348120894367689
1917304.583471745,-0.28,-0.55,9.39,0.0,0.001090830782496456,-0.001090830782496456,,,,0.9994541220646406,-0.02960793628605977,0.014656395807058091,-0.00013438313170483724
1917304.589484518,-0.28,-0.55,9.39,-0.001090830782496456,0.0,0.0,,,,0.9994552166765556,-0.029552762717181946,0.014693078177059333,-0.00013239140487309703
1917304.592550187,-0.26,-0.55,9.39,-0.001090830782496456,0.0,0.0,,,,0.9994560073622489,-0.02954243209541884,0.014660024546949034,-0.0001331678742787202
1917304.602012322,-0.27,-0.56,9.35,0.0,-0.001090830782496456,0.002181661564992912,,,,0.9994543270872213,-0.029631929416422207,0.014593868351143378,-0.00012582622735388035
1917304.611597469,-0.28,-0.55,9.34,-0.002181661564992912,0.0,-0.002181661564992912,,,,0.9994544088447704,-0.029583390282943902,0.014686391720755206,-0.00013250789435865208
1917304.621824781,-0.26,-0.55,9.39,-0.002181661564992912,-0.003272492347489368,-0.001090830782496456,,,,0.9994572084952644,-0.029550911867335578,0.014560645365586324,-0.000140004286055668
1917304.631809494,-0.28,-0.53,9.38,0.0,-0.003272492347489368,0.001090830782496456,,,,0.9994603060039189,-0.02943991185088986,0.014572954012889923,-0.0001316210578097799
1917304.642114248,-0.28,-0.56,9.38,0.0,-0.003272492347489368,0.001090830782496456,,,,0.99945682215318,-0.029526642602214437,0.014636343439402738,-0.00012441395289173058
1917304.651919243,-0.28,-0.54,9.370000000000001,0.001090830782496456,-0.002181661564992912,0.0,,,,0.9994596632370099,-0.0294159800627025,0.014665160238416939,-0.00012146725950852785
1917304.661834449,-0.28,-0.54,9.39,0.001090830782496456,-0.001090830782496456,0.0,,,,0.9994625841665604,-0.029302122984961095,0.014694023584981366,-0.00011878787596296463
1917304.672114914,-0.28,-0.56,9.38,-0.002181661564992912,0.0,0.0,,,,0.9994583917000835,-0.02942184667890166,0.01473988016716704,-0.00011887364449536616
1917304.679988325,-0.28,-0.56,9.38,0.002181661564992912,0.001090830782496456,0.0,,,,0.9994556112682761,-0.02949599260256327,0.014780165608788037,-0.00011928672556581072
1917304.683343892,-0.28,-0.56,9.39,0.002181661564992912,0.001090830782496456,0.0,,,,0.9994544269088534,-0.029528059598794842,0.014796213961030884,-0.00011950332525640561
1917304.689621154,-0.28,-0.56,9.39,-0.001090830782496456,0.0,-0.001090830782496456,,,,0.9994519568375356,-0.02959867459312398,0.014821918934871156,-0.000123105805658419
1917304.693613829,-0.3,-0.56,9.370000000000001,-0.001090830782496456,0.0,-0.001090830782496456,,,,0.9994509601453629,-0.02960982120764314,0.014866787269769475,-0.00012405175929496384
1917304.699782704,-0.3,-0.56,9.370000000000001,0.0,0.001090830782496456,-0.001090830782496456,,,,0.9994494690388156,-0.029623544463501805,0.014939500027038977,-0.00012565982160332855
1917304.702900854,-0.28,-0.56,9.370000000000001,0.0,0.001090830782496456,-0.001090830782496456,,,,0.999448437099593,-0.029659167236404375,0.014937837318640764,-0.00012804009505677105
1917304.712161031,-0.26,-0.56,9.39,-0.001090830782496456,0.0,0.0,,,,0.9994495533892027,-0.029674629435454247,0.014832038591279188,-0.00013126011782646152
1917304.722605246,-0.28,-0.55,9.36,-0.001090830782496456,0.003272492347489368,-0.002181661564992912,,,,0.9994520087138673,-0.029565866620013873,0.01488361901823654,-0.00014033439851075382
1917304.730175447,-0.28,-0.55,9.36,0.0,0.001090830782496456,0.0,,,,0.9994541629505875,-0.029481189583449644,0.014906924687504585,-0.0001386284467148864
1917304.735216733,-0.27,-0.55,9.39,0.0,0.001090830782496456,0.0,,,,0.999455600535666,-0.029457724969612915,0.014856830763532449,-0.00013991843938535763
1917304.740215457,-0.27,-0.55,9.39,0.001090830782496456,0.0,0.0,,,,0.9994571411386913,-0.029431840574520987,0.01480438654434251,-0.0001411606029068555
1917304.743493357,-0.27,-0.56,9.39,0.001090830782496456,0.0,0.0,,,,0.9994569716283543,-0.0294526936253512,0.014774316284818626,-0.00014240788724243688
1917304.749859326,-0.27,-0.56,9.39,0.0,0.0,0.0,,,,0.9994569716283543,-0.0294526936253512,0.014774316284818626,-0.00014240788724243688
1917304.753591129,-0.27,-0.56,9.36,0.0,0.0,0.0,,,,0.9994569716283543,-0.0294526936253512,0.014774316284818626,-0.00014240788724243688
1917304.75978586,-0.27,-0.56,9.36,0.0,0.002181661564992912,-0.001090830782496456,,,,0.9994560174656268,-0.029505534435192802,0.014733317195796432,-0.0001481683180334638
1917304.762891306,-0.28,-0.53,9.36,0.0,0.002181661564992912,-0.001090830782496456,,,,0.9994569185066203,-0.02947042297221977,0.014742453559133867,-0.00014927205455673239
1917304.77232272,-0.29,-0.55,9.370000000000001,0.001090830782496456,-0.001090830782496456,0.001090830782496456,,,,0.9994563388645872,-0.029439774022131292,0.014842730454867673,-0.00014057583543869185
1917304.78015757,-0.29,-0.55,9.370000000000001,-0.001090830782496456,-0.001090830782496456,0.001090830782496456,,,,0.9994555685607087,-0.029423733388439732,0.014926239829712478,-0.00013323296307212717
1917304.783260776,-0.29,-0.53,9.4,-0.001090830782496456,-0.001090830782496456,0.001090830782496456,,,,0.9994563388848685,-0.029392059643230793,0.014937082585953188,-0.00013060093447093683
1917304.789631769,-0.29,-0.53,9.4,-0.002181661564992912,0.002181661564992912,0.0,,,,0.9994576572996097,-0.029330572874660624,0.014969707368209835,-0.0001289237390349987
1917304.793443095,-0.28,-0.5700000000000001,9.39,-0.002181661564992912,0.002181661564992912,0.0,,,,0.9994562488007019,-0.029378273873029086,0.014970201208728011,-0.00012974298048307913
1917304.799823208,-0.28,-0.5700000000000001,9.39,0.0,-0.003272492347489368,0.0,,,,0.9994543574158943,-0.02945114056946531,0.014953283062124637,-0.0001307180306124096
1917304.80293227,-0.28,-0.56,9.370000000000001,0.0,-0.003272492347489368,0.0,,,,0.9994534321688865,-0.02948665619197505,0.014945127020130133,-0.00013118994411828025
1917304.812195039,-0.28,-0.54,9.38,0.0,-0.001090830782496456,-0.001090830782496456,,,,0.9994567137737904,-0.029380703337230064,0.01493430371912286,-0.00013467119308667642
1917304.822150854,-0.28,-0.54,9.370000000000001,-0.001090830782496456,0.001090830782496456,0.001090830782496456,,,,0.9994598584125237,-0.02927194373437804,0.014937483978989603,-0.00012768871145165105
1917304.830635965,-0.26,-0.55,9.370000000000001,0.002181661564992912,0.0,0.0,,,,0.9994615040264002,-0.029265267667650766,0.014840114238277767,-0.00013071733494638272
1917304.840236409,-0.26,-0.55,9.370000000000001,0.0,0.0,-0.001090830782496456,,,,0.9994630165157786,-0.029269293337805383,0.014729823435268536,-0.000139234520623479
1917304.84332195,-0.26,-0.55,9.39,0.0,0.0,-0.001090830782496456,,,,0.9994635728466974,-0.029268099343428635,0.014694378780314874,-0.00014193519058506763
1917304.849643566,-0.26,-0.55,9.39,0.0,0.001090830782496456,-0.001090830782496456,,,,0.9994646584100298,-0.029265648080095068,0.014625206156506265,-0.0001475691506480433
1917304.853428586,-0.27,-0.56,9.36,0.0,0.001090830782496456,-0.001090830782496456,,,,0.9994636549974824,-0.029306400752091812,0.014612135179279813,-0.0001507300027992686
1917304.859816156,-0.27,-0.56,9.36,0.001090830782496456,0.0,-0.001090830782496456,,,,0.9994621160540809,-0.02937161402400855,0.014586381339664441,-0.00015601838844216
1917304.862906242,-0.29,-0.56,9.39,0.001090830782496456,0.0,-0.001090830782496456,,,,0.9994612515012847,-0.029385127239078532,0.014618358090222855,-0.0001570075632258289
1917304.872412858,-0.28,-0.53,9.38,0.0,-0.002181661564992912,0.001090830782496456,,,,0.9994641342021261,-0.02927913204127137,0.014634022228844799,-0.0001492109579236459
1917304.879957234,-0.28,-0.53,9.38,0.001090830782496456,-0.004363323129985824,0.0,,,,0.9994666374827637,-0.029191146315265537,0.014638850531775235,-0.00014693810653171107
1917304.883270911,-0.28,-0.54,9.39,0.001090830782496456,-0.004363323129985824,0.0,,,,0.9994675251976893,-0.029155581725930295,0.01464912580806558,-0.00014574803028676739
1917304.889896921,-0.28,-0.54,9.39,0.001090830782496456,-0.002181661564992912,-0.001090830782496456,,,,0.999469160911731,-0.02908502083845585,0.01467774811530255,-0.0001471716371488104
1917304.8936357,-0.28,-0.56,9.34,0.001090830782496456,-0.002181661564992912,-0.001090830782496456,,,,0.9994678949188036,-0.02912350569686063,0.014687618923840096,-0.00014930789814149938
1917304.899647354,-0.28,-0.56,9.34,0.0,0.0,-0.001090830782496456,,,,0.9994656627089538,-0.02918857343655526,0.014710298272424913,-0.00015287650898265708
1917304.902912901,-0.28,-0.54,9.36,0.0,0.0,-0.001090830782496456,,,,0.9994663296606392,-0.029156221943064206,0.014729120640090063,-0.00015362899117534484
1917304.909819752,-0.28,-0.54,9.36,0.0,0.001090830782496456,-0.004363323129985824,,,,0.9994676779294299,-0.029087967904748466,0.014772377380668772,-0.00016662547507973513
1917304.913597412,-0.27,-0.5700000000000001,9.35,0.0,0.001090830782496456,-0.004363323129985824,,,,0.9994665885356645,-0.029129992087224697,0.014763164774230952,-0.00017586280991726982
1917304.919811376,-0.27,-0.5700000000000001,9.35,0.0,-0.001090830782496456,0.0,,,,0.9994648966551246,-0.029198897873408736,0.014741549351897795,-0.0001773128445644592
1917304.92316115,-0.27,-0.55,9.39,0.0,-0.001090830782496456,0.0,,,,0.999465375060168,-0.029202729041562413,0.014701456855169931,-0.00017843401700853327
1917304.930461774,-0.28,-0.53,9.370000000000001,-0.002181661564992912,0.0,0.002181661564992912,,,,0.9994672510230602,-0.029128952134627493,0.014720388932030126,-0.00016861089996096892
1917304.940188366,-0.28,-0.53,9.370000000000001,0.001090830782496456,-0.002181661564992912,0.001090830782496456,,,,0.9994703642210805,-0.029014772755101677,0.014734590692037176,-0.00016075723550991924
1917304.943268339,-0.3,-0.54,9.370000000000001,0.001090830782496456,-0.002181661564992912,0.001090830782496456,,,,0.9994701506667814,-0.029006190922224475,0.014765970433039047,-0.00015789704092742347
1917304.949628676,-0.3,-0.54,9.370000000000001,-0.002181661564992912,-0.003272492347489368,0.0,,,,0.9994694511777285,-0.02899905648795359,0.01482723159265445,-0.00015520501543469603
1917304.953562726,-0.27,-0.53,9.370000000000001,-0.002181661564992912,-0.003272492347489368,0.0,,,,0.999470888593194,-0.028964232311209016,0.014798380606141692,-0.00015502512465647458
1917304.959807891,-0.27,-0.53,9.370000000000001,-0.002181661564992912,-0.003272492347489368,0.002181661564992912,,,,0.9994731682302139,-0.028908522997340386,0.014753352449685068,-0.00014791033174173972
1917304.96288412,-0.29,-0.55,9.370000000000001,-0.002181661564992912,-0.003272492347489368,0.002181661564992912,,,,0.9994721939956162,-0.028928999779477348,0.01477923356950371,-0.00014372350729955708
1917304.972574007,-0.27,-0.5700000000000001,9.39,0.0,0.001090830782496456,0.001090830782496456,,,,0.9994695185508973,-0.029035162532823938,0.014751979935673601,-0.0001411109766442448
1917304.979993867,-0.27,-0.5700000000000001,9.39,0.0,0.0,0.0,,,,0.9994695185508973,-0.029035162532823938,0.014751979935673601,-0.0001411109766442448
1917304.983511934,-0.27,-0.56,9.39,0.0,0.0,0.0,,,,0.9994695185508973,-0.029035162532823938,0.014751979935673601,-0.0001411109766442448
1917305.00195574,-0.28,-0.56,9.370000000000001,0.0,-0.001090830782496456,0.001090830782496456,,,,0.9994629913007583,-0.029241795725032736,0.014786102792369697,-0.00013254104837371575
1917305.012257871,-0.27,-0.56,9.39,0.0,0.0,0.0,,,,0.9994629913007583,-0.029241795725032736,0.014786102792369697,-0.00013254104837371575
1917305.022288825,-0.26,-0.54,9.36,0.0,-0.001090830782496456,0.0,,,,0.9994660619850245,-0.029191719920134737,0.014677066874465771,-0.0001346707616736568
1917305.03040858,-0.26,-0.54,9.36,-0.001090830782496456,0.001090830782496456,-0.001090830782496456,,,,0.9994682829906866,-0.0291554526351466,0.014597636584808435,-0.0001410086038561921
1917305.033519882,-0.26,-0.55,9.370000000000001,-0.001090830782496456,0.001090830782496456,-0.001090830782496456,,,,0.9994685195811464,-0.029164036727592674,0.014564224473863255,-0.00014385234933630666
1917305.039752663,-0.26,-0.55,9.370000000000001,-0.001090830782496456,0.0,-0.002181661564992912,,,,0.9994690449977282,-0.029181085806238558,0.014493755915612411,-0.00015284618754771704
1917305.043086308,-0.28,-0.55,9.370000000000001,-0.001090830782496456,0.0,-0.002181661564992912,,,,0.9994681586558206,-0.029193146313526014,0.014530514554732988,-0.00015552567394046105
1917305.04982349,-0.28,-0.55,9.370000000000001,-0.001090830782496456,0.002181661564992912,0.0,,,,0.9994662654381824,-0.0292170608603822,0.014612458749179814,-0.00015380194025978747
1917305.053618655,-0.29,-0.5700000000000001,9.38,-0.001090830782496456,0.002181661564992912,0.0,,,,0.9994647432220027,-0.029254077417014145,0.014642486243383867,-0.0001536465674225695
1917305.062168696,-0.26,-0.53,9.39,-0.001090830782496456,0.002181661564992912,0.0,,,,0.9994676197003006,-0.02918057506578656,0.014592715954275155,-0.00015443614585534872
1917305.072316709,-0.28,-0.55,9.370000000000001,0.0,0.001090830782496456,0.001090830782496456,,,,0.9994647802996228,-0.029220010948052308,0.014707904492066416,-0.00014644546661929955
1917305.082002596,-0.3,-0.56,9.38,0.0,0.0,0.0,,,,0.9994647802996228,-0.029220010948052308,0.014707904492066416,-0.00014644546661929955
1917305.092070223,-0.28,-0.54,9.39,0.0,0.002181661564992912,0.001090830782496456,,,,0.9994672269544256,-0.02911107586126909,0.014757652614824646,-0.00013854793538692296
1917305.102243485,-0.24,-0.54,9.36,-0.001090830782496456,0.002181661564992912,0.0,,,,0.9994691322837497,-0.029098279332724544,0.014653450884971232,-0.00014187672480890632
1917305.112093537,-0.27,-0.56,9.38,-0.002181661564992912,0.0,0.001090830782496456,,,,0.9994663713445792,-0.02921389196103272,0.014611697938848707,-0.0001391083496522857
1917305.122380307,-0.27,-0.56,9.370000000000001,0.001090830782496456,0.0,0.0,,,,0.999463870898324,-0.029319269455756334,0.014571583571389253,-0.0001419850035290757
