timestamp (sec),accel_x (m/s^2),accel_y (m/s^2),accel_z (m/s^2),gyro_x (rad/s),gyro_y (rad/s),gyro_z (rad/s),mag_x (uT),mag_y (uT),mag_z (uT),pose_w,pose_x,pose_y,pose_z
360861.770725671,3.0100000000000002,3.73,7.890000000000001,0.004363323129985824,-0.00545415391248228,-0.004363323129985824,,,,0.9999998571002202,0.00041092439559561487,-0.00034126927156903267,-2.181661253233955e-05
360861.789903181,3.0500000000000003,3.73,7.94,0.003272492347489368,-0.011999138607461015,0.00545415391248228,,,,0.9999987325809058,0.0011845820648928361,-0.001063332137708257,3.0441395971033654e-05
360861.808378428,3.13,3.74,7.91,0.002181661564992912,-0.02399827721492203,0.004363323129985824,,,,0.9999964042702838,0.0019132267027139945,-0.001877776909410672,7.045541520972907e-05
360861.825654306,3.13,3.74,7.930000000000001,-0.008726646259971648,-0.015271630954950384,0.004363323129985824,,,,0.9999935815614457,0.0025006172707047708,-0.0025636260868933452,0.00010756609298117283
360861.839181385,3.16,3.72,7.95,-0.009817477042468103,-0.008726646259971648,0.004363323129985824,,,,0.9999909572918565,0.0029501373586471426,-0.00305996465981059,0.00013652971262055722
360861.855730039,3.12,3.71,7.99,-0.004363323129985824,0.006544984694978736,0.0,,,,0.9999874397522449,0.003548123575193709,-0.0035373160340804403,0.00013620616909177947
360861.868738285,3.11,3.72,7.98,0.0,0.013089969389957472,-0.001090830782496456,,,,0.9999843166778448,0.004047772867226227,-0.003868495888642225,0.00012912288233414643
360861.885758635,3.0700000000000003,3.7,7.96,0.006544984694978736,0.022907446432425576,0.0,,,,0.9999797796765385,0.004759108192465446,-0.004215955750991545,0.0001297858997438113
360861.898634653,3.0100000000000002,3.72,7.92,0.007635815477475192,0.016362461737446838,0.0,,,,0.9999757052890254,0.005309125603513455,-0.004514979203472904,0.00013030669530713046
360861.911553968,2.99,3.72,7.890000000000001,0.00545415391248228,0.004363323129985824,0.0,,,,0.9999709298999133,0.00584809423416128,-0.004891024656928127,0.0001304865373834286
360861.926159676,3.0300000000000002,3.72,7.9,-0.003272492347489368,-0.01090830782496456,0.002181661564992912,,,,0.9999648182773475,0.0063904811644778575,-0.005431639909450577,0.00014575984374178108
360861.939153746,3.06,3.74,7.930000000000001,-0.009817477042468103,-0.017453292519943295,0.002181661564992912,,,,0.9999589266645025,0.006829667665769041,-0.00595612459167937,0.00015875578719384438
360861.951443504,3.0500000000000003,3.7,7.94,-0.007635815477475192,-0.02181661564992912,0.0,,,,0.9999526545829968,0.007257224697699132,-0.006480471242480456,0.00015739942979609174
360861.977884235,3.15,3.68,7.96,-0.002181661564992912,-0.016362461737446838,0.003272492347489368,,,,0.999937543370009,0.00823294795915025,-0.00755569169894717,0.00019862025046321396
360861.990961379,3.15,3.72,8.01,0.001090830782496456,-0.007635815477475192,-0.001090830782496456,,,,0.999929571054687,0.008739705933162803,-0.008027082671021498,0.00019082553331217547
360862.007616117,3.13,3.75,7.98,0.004363323129985824,0.014180800172453928,0.001090830782496456,,,,0.9999200184796015,0.009416141589463727,-0.008441126955998503,0.00020074121002177655
360862.020854931,3.08,3.73,7.94,0.006544984694978736,0.016362461737446838,0.001090830782496456,,,,0.9999119606706708,0.009970418154408913,-0.00875317047151345,0.00020898865538891644
360862.037429569,3.0300000000000002,3.72,7.9,0.0,0.018544123302439753,0.0,,,,0.9999020483908204,0.01061364774914487,-0.009121401585812072,0.0002100914298318136
360862.05022008,3.0,3.73,7.92,-0.002181661564992912,0.013089969389957472,0.001090830782496456,,,,0.9998938501459921,0.011098430676517286,-0.009437476488202104,0.00021751845358177702
360862.066602808,3.0100000000000002,3.71,7.91,-0.00545415391248228,-0.004363323129985824,0.002181661564992912,,,,0.9998817532296971,0.01169008124449669,-0.009988326917125019,0.00023427377383837815
360862.078802099,3.02,3.71,7.92,-0.006544984694978736,-0.016362461737446838,0.002181661564992912,,,,0.9998716375504004,0.012123408226474314,-0.010472391822166072,0.0002457738348948536
360862.091153587,3.0500000000000003,3.7,7.92,-0.004363323129985824,-0.02181661564992912,0.004363323129985824,,,,0.9998604210223083,0.012573051415982634,-0.01099925684508359,0.00027055505791815493
360862.107774371,3.14,3.72,7.95,0.001090830782496456,-0.0272707695624114,0.00545415391248228,,,,0.9998434314204986,0.013216970662534546,-0.011761226662786053,0.0003128564769345169
360862.120714967,3.13,3.75,7.95,0.0,-0.020725784867432664,0.004363323129985824,,,,0.9998301382711545,0.013713963445339447,-0.01230881574977982,0.0003389190789054729
360862.137903354,3.14,3.73,7.94,-0.001090830782496456,0.002181661564992912,0.004363323129985824,,,,0.9998143152323716,0.01436234599693994,-0.012841989437595288,0.000376006878521012
360862.150445633,3.14,3.72,7.97,-0.001090830782496456,0.01090830782496456,-0.001090830782496456,,,,0.9998030595076827,0.014835279577624356,-0.013176494675060307,0.00036968501330059654
360862.165103311,3.12,3.73,7.94,-0.00545415391248228,0.020725784867432664,-0.001090830782496456,,,,0.9997909475755389,0.015358111794492653,-0.013492880268241346,0.0003629465263209038
360862.178623702,3.0300000000000002,3.69,7.94,-0.004363323129985824,0.018544123302439753,0.001090830782496456,,,,0.9997791228799127,0.01585159292334732,-0.013794729453767819,0.00037134157121829496
360862.19226669,3.02,3.7,7.91,-0.002181661564992912,0.01090830782496456,0.003272492347489368,,,,0.9997658686636993,0.0163654483454022,-0.014150074643620602,0.00039413595712659846
360862.207923282,3.0,3.7,7.92,-0.002181661564992912,-0.002181661564992912,0.002181661564992912,,,,0.9997486859907121,0.016956908244526905,-0.014658101595409421,0.0004100978543164734
360862.220789187,3.0300000000000002,3.72,7.930000000000001,0.002181661564992912,-0.013089969389957472,0.004363323129985824,,,,0.9997325540569724,0.017469844350273916,-0.015147091876378015,0.0004364685424845941
360862.237049063,3.08,3.72,7.92,0.001090830782496456,-0.020725784867432664,0.001090830782496456,,,,0.9997106351095374,0.018105226664319574,-0.015831974371091077,0.00044204505657654506
360862.249334533,3.1,3.75,7.95,-0.003272492347489368,-0.018544123302439753,0.003272492347489368,,,,0.9996942073476695,0.018558739864857853,-0.01633566686342806,0.00045930193834584505
360862.262166741,3.12,3.73,7.98,-0.00545415391248228,-0.011999138607461015,0.004363323129985824,,,,0.9996775255348967,0.01901584695737543,-0.016822824899910924,0.00048483740201253264
360862.274434099,3.15,3.7,7.95,-0.008726646259971648,-0.001090830782496456,0.001090830782496456,,,,0.9996627118931666,0.019429410923555112,-0.01722556777536718,0.0004901595452146771
360862.289104385,3.09,3.69,7.99,-0.004363323129985824,0.006544984694978736,-0.002181661564992912,,,,0.9996449284080104,0.01996060575739616,-0.017645586136577567,0.0004739365338293827
360862.302043477,3.09,3.68,7.97,-0.002181661564992912,0.007635815477475192,0.0,,,,0.9996286950621377,0.020442297606918115,-0.018009987085090787,0.00047417519228867453
360862.318567842,3.08,3.69,7.930000000000001,0.006544984694978736,0.01090830782496456,0.0,,,,0.9996064147955455,0.02113109843761711,-0.018446281695567543,0.0004763087481340309
360862.331682108,3.04,3.71,7.94,0.008726646259971648,0.007635815477475192,0.0,,,,0.9995875518080083,0.02169601840068313,-0.018809061400489054,0.0004777711399127767
360862.34814439,3.0500000000000003,3.73,7.91,0.002181661564992912,0.001090830782496456,0.002181661564992912,,,,0.9995633950408368,0.02235136105930808,-0.019318137988874468,0.000495477421652555
360862.360687789,3.0500000000000003,3.74,7.91,0.001090830782496456,-0.001090830782496456,0.002181661564992912,,,,0.9995444151733008,0.02284436178694212,-0.01971899163464973,0.0005085266208441395
360862.373644065,3.0500000000000003,3.73,7.92,-0.006544984694978736,-0.008726646259971648,0.002181661564992912,,,,0.9995245437434325,0.023303538968518785,-0.020183191111174857,0.0005199255674590761
360862.388932324,3.06,3.73,7.930000000000001,-0.007635815477475192,-0.008726646259971648,0.004363323129985824,,,,0.9995007375399636,0.023835896726477332,-0.020732182744671524,0.0005498026510737434
360862.402503278,3.09,3.71,7.94,-0.006544984694978736,-0.013089969389957472,0.003272492347489368,,,,0.9994783067000893,0.024312541611568716,-0.021253038688194555,0.0005684213457211065
360862.418550122,3.11,3.71,7.95,-0.001090830782496456,-0.01090830782496456,0.002181661564992912,,,,0.9994504381971011,0.024918349537654632,-0.021853091074326366,0.0005829703586863622
360862.431475838,3.13,3.7,7.97,0.0,-0.007635815477475192,0.001090830782496456,,,,0.9994277579196392,0.025411480490253147,-0.022317419770794482,0.0005883313614128854
360862.447612318,3.1,3.72,7.94,0.003272492347489368,0.001090830782496456,0.002181661564992912,,,,0.9993997250772371,0.026057545665062135,-0.02282162807770558,0.0006059053879378864
360862.460285001,3.1,3.73,7.96,0.002181661564992912,0.002181661564992912,0.002181661564992912,,,,0.9993775854221905,0.02655852552207779,-0.02320996373541327,0.000619726719254332
360862.473157594,3.08,3.73,7.930000000000001,0.001090830782496456,0.009817477042468103,0.003272492347489368,,,,0.9993560334486056,0.02706158311242081,-0.02355370744945391,0.0006418681364551098
360862.488529568,3.0500000000000003,3.73,7.92,0.0,0.006544984694978736,0.0,,,,0.9993294621195876,0.027657027561332037,-0.023985464501075804,0.0006422296436487023
360862.501494005,3.0300000000000002,3.72,7.95,-0.003272492347489368,0.003272492347489368,0.002181661564992912,,,,0.9993067067629218,0.0281384700584885,-0.02437011584500505,0.0006555723548791874
360862.517288233,3.0500000000000003,3.72,7.91,-0.002181661564992912,-0.001090830782496456,0.002181661564992912,,,,0.99927736608791,0.028731706653998247,-0.024875372851694055,0.0006711800408916013
360862.530200828,3.0300000000000002,3.73,7.930000000000001,-0.004363323129985824,-0.003272492347489368,0.0,,,,0.9992529987911707,0.02920506877082562,-0.025299424139837698,0.0006689567522645466
360862.543070478,3.0500000000000003,3.72,7.92,-0.004363323129985824,-0.007635815477475192,0.002181661564992912,,,,0.9992275761362855,0.029674407502476366,-0.025753022859501665,0.0006800307188880386
360862.558623994,3.08,3.71,7.95,0.001090830782496456,-0.013089969389957472,0.00545415391248228,,,,0.9991938615082178,0.03027994145837741,-0.02634835104222288,0.0007187954713303664
360862.571303493,3.09,3.71,7.98,-0.001090830782496456,-0.01090830782496456,0.001090830782496456,,,,0.9991666606782372,0.030759791957088885,-0.026819713133872634,0.0007227553347052988
360862.586209179,3.09,3.73,7.97,-0.002181661564992912,-0.001090830782496456,0.00545415391248228,,,,0.9991363420544876,0.03131630640075269,-0.02729979268576234,0.0007617471409389834
360862.599786149,3.1,3.72,7.95,-0.002181661564992912,-0.003272492347489368,0.001090830782496456,,,,0.9991078670283817,0.03182253540975592,-0.02775261384683638,0.0007672722859713336
360862.612775291,3.11,3.74,7.91,-0.002181661564992912,0.003272492347489368,0.001090830782496456,,,,0.9990813937839079,0.03230727837847272,-0.028142663872468263,0.0007738402556265489
360862.625101146,3.1,3.71,7.96,0.0,0.004363323129985824,0.002181661564992912,,,,0.9990556605856338,0.03277937248354879,-0.028507537429387823,0.000787464983173254
360862.639993552,3.0700000000000003,3.72,7.95,-0.003272492347489368,0.003272492347489368,0.001090830782496456,,,,0.9990246871549676,0.03332891800932393,-0.02895213649551775,0.0007946518683031753
360862.652312431,3.06,3.72,7.91,0.0,0.0,0.001090830782496456,,,,0.9989974204774289,0.03380430152105963,-0.029339092338117018,0.0008004616741751035
360862.668848092,3.06,3.71,7.95,-0.004363323129985824,0.0,0.003272492347489368,,,,0.9989614589743572,0.03440495679183135,-0.029860029369460146,0.0008252745184909368
360862.681010806,3.0700000000000003,3.71,7.92,-0.003272492347489368,-0.00545415391248228,0.003272492347489368,,,,0.998933370405664,0.03485265172346352,-0.030277123035977068,0.0008426022121405289
360862.693303476,3.0700000000000003,3.71,7.94,-0.002181661564992912,-0.007635815477475192,0.002181661564992912,,,,0.9989039612352403,0.0353120435550956,-0.030711692068086358,0.0008530995391647292
360862.709354673,3.0700000000000003,3.71,7.94,-0.002181661564992912,-0.007635815477475192,0.003272492347489368,,,,0.9988649549528705,0.03591161895523479,-0.031279241414973874,0.0008754698840324455
360862.72227178,3.08,3.71,7.98,-0.004363323129985824,-0.00545415391248228,0.002181661564992912,,,,0.9988340376809395,0.03637950573391942,-0.0317224037330753,0.0008864727536845941
360862.738820049,3.09,3.7,7.95,-0.001090830782496456,-0.003272492347489368,0.003272492347489368,,,,0.998793396059399,0.03700381542888561,-0.03227443927607687,0.0009111538028266022
360862.751382361,3.09,3.7,7.930000000000001,0.0,-0.001090830782496456,-0.001090830782496456,,,,0.998762299619784,0.037485422492157215,-0.032678680768946713,0.0009032065027387899
360862.765747389,3.0700000000000003,3.72,7.96,0.001090830782496456,0.003272492347489368,0.001090830782496456,,,,0.9987269937797791,0.03804653513488692,-0.03310624180083286,0.0009109410845898402
360862.779583919,3.09,3.72,7.92,0.002181661564992912,0.003272492347489368,0.002181661564992912,,,,0.998692217905459,0.03859246780343719,-0.033520399859157425,0.0009263461545287423
360862.792355261,3.08,3.72,7.9,0.001090830782496456,0.001090830782496456,0.0,,,,0.9986595205172166,0.03909054692037612,-0.033915100087759616,0.0009258551864246492
360862.809615203,3.06,3.73,7.94,-0.003272492347489368,-0.001090830782496456,-0.001090830782496456,,,,0.9986155598638046,0.03972925267398027,-0.034463248584649664,0.0009135517828228608
360862.822472148,3.08,3.72,7.95,-0.002181661564992912,-0.006544984694978736,0.001090830782496456,,,,0.9985808334876924,0.040209310188552366,-0.03490972300428288,0.0009173902935125863
360862.839447472,3.06,3.71,7.96,-0.006544984694978736,-0.004363323129985824,0.002181661564992912,,,,0.9985364952840163,0.040807030457915026,-0.03547939041597596,0.0009309709077821182
360862.852290209,3.06,3.73,7.97,-0.004363323129985824,-0.004363323129985824,0.001090830782496456,,,,0.9985019353363443,0.04127478454258326,-0.03590827087946529,0.000934544266116222
360862.868213657,3.0500000000000003,3.7,7.95,0.001090830782496456,-0.002181661564992912,0.0,,,,0.9984573500913401,0.04189693570366487,-0.036423852393616146,0.0009326328484925565
360862.881045161,3.09,3.74,7.94,0.002181661564992912,-0.001090830782496456,0.002181661564992912,,,,0.9984208981166335,0.04240407786469837,-0.03683354612133303,0.0009456556176971563
360862.893296934,3.08,3.72,7.94,0.003272492347489368,-0.001090830782496456,0.002181661564992912,,,,0.9983854123678761,0.042894412156619224,-0.03722525059704786,0.0009583813181317564
360862.909477191,3.08,3.72,7.92,-0.001090830782496456,0.0,0.002181661564992912,,,,0.998339819996166,0.043506577723595244,-0.03773370266365254,0.0009742628468725972
360862.92226191,3.08,3.73,7.95,-0.00545415391248228,-0.003272492347489368,0.003272492347489368,,,,0.998303776101428,0.043962770103718775,-0.03815575868399632,0.0009917387188284265
360862.938754466,3.0700000000000003,3.7,7.92,-0.007635815477475192,0.002181661564992912,0.002181661564992912,,,,0.9982592601426483,0.044532054160392257,-0.03865659489667189,0.001006659179175745
360862.95132769,3.0500000000000003,3.73,7.95,-0.006544984694978736,-0.002181661564992912,0.003272492347489368,,,,0.9982235667495241,0.044976146922634436,-0.03906160946130143,0.0010235527075331326
360862.965844211,3.08,3.7,7.97,-0.002181661564992912,-0.002181661564992912,0.0,,,,0.9981804803552591,0.045516404131388306,-0.03953407599109147,0.0010209937429740807
360862.978202163,3.24,3.87,8.32,0.002181661564992912,-0.001090830782496456,0.003272492347489368,,,,0.9981424048958915,0.04600098485549187,-0.039932021741390746,0.0010404713432816662
360862.99278307,3.22,3.89,8.34,0.003272492347489368,-0.001090830782496456,0.002181661564992912,,,,0.998096627146896,0.04658411053218162,-0.04039714588514835,0.001055522737687247
360863.009491377,3.23,3.92,8.33,0.002181661564992912,-0.002181661564992912,0.002181661564992912,,,,0.9980435563715024,0.047244522061809624,-0.0409373407021371,0.0010718473361767422
360863.022166748,3.23,3.91,8.32,0.001090830782496456,0.001090830782496456,0.002181661564992912,,,,0.9980040010172618,0.04773787751556455,-0.041327131690772005,0.001084983898485928
360863.03960708,3.21,3.88,8.33,-0.007635815477475192,0.003272492347489368,0.001090830782496456,,,,0.9979534243187601,0.0483404902010271,-0.04184457863152959,0.0010913921087370444
360863.051929767,3.23,3.9,8.34,-0.004363323129985824,-0.003272492347489368,0.002181661564992912,,,,0.9979146195547097,0.048785823649708085,-0.04225094253627814,0.0011015192212058113
360863.067126151,3.22,3.87,8.31,-0.002181661564992912,-0.004363323129985824,0.001090830782496456,,,,0.9978651049678562,0.049350480703553155,-0.04276141778342739,0.0011061152601432585
360863.080416647,3.22,3.9,8.35,0.0,-0.00545415391248228,0.001090830782496456,,,,0.9978203027965636,0.04986078206927873,-0.043212421225147235,0.0011101307465791743
360863.093265944,3.24,3.89,8.36,-0.001090830782496456,-0.003272492347489368,0.001090830782496456,,,,0.9977775105939769,0.050344847113957175,-0.043637064390621136,0.0011146000750361634
360863.10972013,3.25,3.9,8.32,0.002181661564992912,-0.004363323129985824,0.002181661564992912,,,,0.9977203369176321,0.05099090028496448,-0.044190276473890025,0.0011299797594188162
360863.122257417,3.23,3.92,8.36,0.0,0.0,0.002181661564992912,,,,0.9976782276816014,0.051472242020821055,-0.04458091278933486,0.0011421586222823293
360863.139262406,3.22,3.89,8.34,-0.004363323129985824,0.003272492347489368,0.003272492347489368,,,,0.997623679251577,0.05208597047448,-0.04508527870792515,0.0011678699015503875
360863.151484162,3.21,3.88,8.34,-0.001090830782496456,0.003272492347489368,-0.001090830782496456,,,,0.99758307194823,0.05254826558738119,-0.04544609208315606,0.0011606293379024318
360863.164333363,3.19,3.9,8.32,-0.002181661564992912,0.00545415391248228,-0.001090830782496456,,,,0.9975410398278224,0.05303008769330261,-0.04580779355637645,0.0011531296389224292
360863.177173059,3.19,3.88,8.34,-0.001090830782496456,-0.002181661564992912,0.0,,,,0.9974960299966903,0.05351684186404736,-0.046220061566413166,0.0011505157702471186
360863.190494756,3.23,3.88,8.3,0.0,-0.004363323129985824,0.001090830782496456,,,,0.9974478170301594,0.05402531871285533,-0.04666672574640802,0.0011549666028219487
360863.203528795,3.23,3.9,8.31,0.003272492347489368,-0.009817477042468103,0.003272492347489368,,,,0.9973973591808312,0.05454474918264847,-0.04713813468516655,0.001172388207585777
360863.220017287,3.25,3.89,8.33,-0.002181661564992912,-0.00545415391248228,0.002181661564992912,,,,0.9973370329180945,0.05515436695814528,-0.04770149914698754,0.0011855609254526622
360863.233221476,3.24,3.89,8.31,-0.003272492347489368,-0.00545415391248228,0.001090830782496456,,,,0.9972886464829637,0.05563651265654039,-0.04815103037210571,0.0011884147851457902
360863.250378886,3.23,3.89,8.36,-0.001090830782496456,0.001090830782496456,-0.001090830782496456,,,,0.9972268437831727,0.05628356228489536,-0.04867644904360084,0.0011772694168381865
360863.26319359,3.21,3.88,8.36,0.0,0.00545415391248228,0.002181661564992912,,,,0.9971811923302223,0.05677360082398922,-0.04904087959156574,0.0011916548326336572
360863.275436018,3.22,3.89,8.33,0.004363323129985824,0.007635815477475192,0.002181661564992912,,,,0.9971363671400848,0.05726806940937764,-0.049375858965551474,0.0012075198593157989
360863.290966205,3.18,3.93,8.32,0.004363323129985824,0.001090830782496456,0.0,,,,0.997076519785779,0.05790316629513936,-0.049841549150204244,0.0012070638691134665
360863.303640808,3.22,3.93,8.3,0.001090830782496456,0.004363323129985824,0.002181661564992912,,,,0.9970294453005502,0.05839665934856494,-0.050205819717450834,0.0012210843966829863
360863.320356092,3.22,3.9,8.32,-0.003272492347489368,-0.002181661564992912,0.0,,,,0.996966189921585,0.059009278296479485,-0.050742888932356636,0.0012167378375694822
360863.333202796,3.22,3.91,8.35,-0.004363323129985824,-0.00545415391248228,0.0,,,,0.9969164763784606,0.05947377505423252,-0.05117559052066864,0.001211668607213439
360863.351191466,3.21,3.84,8.370000000000001,-0.008726646259971648,-0.002181661564992912,0.001090830782496456,,,,0.9968500529907616,0.060078872515211525,-0.051759303037137085,0.0012146928528703384
360863.364259363,3.24,3.85,8.31,-0.003272492347489368,-0.007635815477475192,0.001090830782496456,,,,0.9967973437528458,0.06055210387631683,-0.05222085573250218,0.0012167292172667596
360863.377157653,3.24,3.88,8.34,0.001090830782496456,-0.006544984694978736,0.001090830782496456,,,,0.9967435581911597,0.06104934533000842,-0.052666569489050526,0.0012202858102928367
360863.391467256,3.2600000000000002,3.89,8.31,0.00545415391248228,0.0,0.003272492347489368,,,,0.9966839183537926,0.06163002573935219,-0.05311646007278483,0.0012443840378580351
360863.405415181,3.24,3.9,8.33,0.008726646259971648,0.006544984694978736,-0.001090830782496456,,,,0.9966263461301154,0.06222274860108247,-0.053504345625610385,0.001241271540533296
360863.421300869,3.24,3.94,8.33,0.00545415391248228,0.006544984694978736,-0.001090830782496456,,,,0.9965618232677341,0.06287496709890257,-0.05394203504519328,0.0012360310613702497
360863.434155286,3.22,3.94,8.31,0.0,0.009817477042468103,-0.001090830782496456,,,,0.9965125407965072,0.06336919034591515,-0.054273254322791356,0.0012311033289178874
360863.450718916,3.22,3.89,8.3,-0.00545415391248228,0.008726646259971648,-0.002181661564992912,,,,0.9964509167901553,0.06395677406693652,-0.05471406666495443,0.0012134199573446143
360863.463561013,3.18,3.9,8.34,-0.009817477042468103,0.008726646259971648,-0.001090830782496456,,,,0.9964045889469159,0.06438802783218342,-0.05505112022821693,0.0012046406219641517
360863.476357316,3.2,3.87,8.370000000000001,-0.004363323129985824,-0.004363323129985824,0.001090830782496456,,,,0.9963511996963919,0.06484791241917248,-0.05547592832536328,0.0012068532947913427
360863.491473857,3.22,3.85,8.290000000000001,0.002181661564992912,-0.007635815477475192,0.001090830782496456,,,,0.9962830050561726,0.0654366397974856,-0.05600672614646426,0.0012110469072240829
360863.504470423,3.21,3.87,8.34,0.003272492347489368,-0.003272492347489368,0.0,,,,0.9962250317696472,0.06595251944614469,-0.056431271889665874,0.0012094656614434905
360863.521236044,3.2600000000000002,3.92,8.33,-0.001090830782496456,-0.003272492347489368,0.003272492347489368,,,,0.996152000296807,0.0665788078175059,-0.05698188135046569,0.001232822789918066
360863.534035099,3.2800000000000002,3.91,8.32,0.003272492347489368,-0.002181661564992912,0.002181661564992912,,,,0.9960943203289742,0.06708259757680568,-0.0573975389673012,0.001246046228886326
360863.550920596,3.24,3.9,8.35,-0.001090830782496456,0.002181661564992912,0.0,,,,0.9960222493828403,0.0677150107615084,-0.057903419965378546,0.0012449932645522003
360863.563734372,3.24,3.89,8.38,-0.006544984694978736,0.006544984694978736,0.0,,,,0.9959711399393222,0.06815922235765928,-0.05826028527497378,0.0012441765328950073
360863.576872703,3.22,3.9,8.370000000000001,-0.003272492347489368,0.008726646259971648,-0.002181661564992912,,,,0.9959177997207108,0.06863932741742555,-0.0586077103494108,0.0012309422169136134
360863.591921978,3.19,3.89,8.31,0.0,0.004363323129985824,-0.002181661564992912,,,,0.995852649290429,0.06921583291025826,-0.059035530444684785,0.0012147102072947106
360863.605439265,3.2,3.9,8.33,0.0,0.006544984694978736,0.001090830782496456,,,,0.9957945516216502,0.06973195236404564,-0.059406813176100665,0.0012232450265525546
360863.621907916,3.2,3.92,8.36,0.00545415391248228,0.002181661564992912,-0.001090830782496456,,,,0.9957179563799771,0.0704081713547854,-0.05989125808865782,0.0012157111149798444
360863.634595351,3.2,3.92,8.31,0.003272492347489368,0.0,-0.001090830782496456,,,,0.9956586343163407,0.0709150993142635,-0.06027829554130026,0.0012081751541503307
360863.651241448,3.22,3.91,8.33,-0.00545415391248228,-0.00545415391248228,0.003272492347489368,,,,0.995582579980399,0.07150227879409918,-0.06083785141368051,0.001227355771750744
360863.664697038,3.24,3.89,8.33,-0.006544984694978736,-0.006544984694978736,0.002181661564992912,,,,0.9955207116797754,0.07196661887371096,-0.06130084176360559,0.001234983219699565
360863.677866569,3.23,3.89,8.33,-0.002181661564992912,-0.006544984694978736,0.001090830782496456,,,,0.9954576855165979,0.0724510476564484,-0.061752022815576166,0.0012368175313664663
360863.692028807,3.24,3.92,8.36,-0.004363323129985824,-0.002181661564992912,0.0,,,,0.9953924975195202,0.07295845535596063,-0.062203871497812716,0.0012320895292556799
360863.704853047,3.23,3.88,8.34,0.0,0.0,0.003272492347489368,,,,0.9953318706526016,0.07344229793905106,-0.06260294988109306,0.0012517199406782986
360863.721374947,3.24,3.9,8.32,0.003272492347489368,0.003272492347489368,-0.001090830782496456,,,,0.9952529505544672,0.07409532941298304,-0.06308642730946273,0.0012446931898503915
360863.734203444,3.24,3.92,8.35,0.003272492347489368,0.00545415391248228,-0.002181661564992912,,,,0.995192132121292,0.07460406948735762,-0.0634455068942871,0.0012331401904986522
360863.751185808,3.21,3.9,8.290000000000001,0.002181661564992912,0.008726646259971648,-0.001090830782496456,,,,0.9951135096443867,0.0752689949952695,-0.06389188045889246,0.0012283839219277076
360863.763959966,3.17,3.89,8.31,-0.001090830782496456,0.007635815477475192,-0.002181661564992912,,,,0.9950551178064243,0.07575146757112183,-0.06423044346472286,0.001215656361587473
360863.776776462,3.18,3.87,8.35,-0.003272492347489368,-0.002181661564992912,-0.001090830782496456,,,,0.9949931768155099,0.07621864107022067,-0.06463625712527313,0.001204619783978642
360863.791824905,3.23,3.85,8.3,-0.004363323129985824,-0.00545415391248228,0.0,,,,0.9949189702403466,0.07675103518079077,-0.06514664034700896,0.00119854330868272
360863.804747197,3.22,3.89,8.35,0.0,-0.007635815477475192,-0.001090830782496456,,,,0.9948517461311333,0.07724077209517387,-0.06559313193368514,0.0011863343149530812
360863.821659286,3.24,3.87,8.32,0.001090830782496456,-0.006544984694978736,0.0,,,,0.9947629915724985,0.07788561497892582,-0.06617420673347857,0.001181499167462304
360863.83447911,3.2600000000000002,3.88,8.32,0.004363323129985824,0.001090830782496456,0.0,,,,0.9946968391841688,0.07839403614656151,-0.06656705915899377,0.00118315197616527
360863.851455042,3.21,3.92,8.35,0.003272492347489368,0.003272492347489368,0.001090830782496456,,,,0.994610622669894,0.07906746070246554,-0.06705684827274849,0.0011937462023120452
360863.86432354,3.25,3.88,8.32,0.002181661564992912,0.009817477042468103,0.002181661564992912,,,,0.994548184864551,0.07956329430532638,-0.06739524659409635,0.0012128142611033544
360863.877172325,3.2,3.89,8.31,0.003272492347489368,0.002181661564992912,-0.002181661564992912,,,,0.9944816615008795,0.08007257389117302,-0.0677729188519422,0.0011997162919528384
360863.892646382,3.18,3.91,8.32,-0.001090830782496456,0.004363323129985824,-0.002181661564992912,,,,0.9944049242998582,0.08065621069725515,-0.06820574928712593,0.0011823571098270808
360863.907304444,3.21,3.9,8.34,-0.00545415391248228,-0.001090830782496456,0.001090830782496456,,,,0.9943315687760906,0.08117129631800432,-0.06866256271256749,0.0011851038250154408
360863.922757893,3.21,3.86,8.34,-0.002181661564992912,-0.007635815477475192,-0.001090830782496456,,,,0.9942481827548156,0.08173676245384667,-0.06919743589231048,0.0011694521109818729
360863.935600246,3.22,3.88,8.36,-0.002181661564992912,-0.004363323129985824,0.0,,,,0.9941798977272694,0.08220676174422441,-0.06962055887287512,0.001164929505566238
360863.951931612,3.23,3.88,8.38,-0.001090830782496456,0.004363323129985824,0.001090830782496456,,,,0.9940967494292225,0.0828112391851668,-0.07008973976489749,0.001174656783773098
360863.964754444,3.24,3.87,8.34,0.003272492347489368,0.001090830782496456,0.0,,,,0.994027264673227,0.08331216961381326,-0.07048047050909657,0.0011759070193361485
360863.97758614,3.24,3.89,8.33,0.006544984694978736,0.003272492347489368,-0.001090830782496456,,,,0.9939565859001721,0.08383621427150745,-0.07085491890803593,0.0011725991775892125
360863.99241752,3.22,3.91,8.290000000000001,0.003272492347489368,0.004363323129985824,0.003272492347489368,,,,0.9938769936572631,0.08441927648192987,-0.07127740881338274,0.0011992622391039957
360864.005666222,3.22,3.9,8.32,-0.001090830782496456,0.002181661564992912,-0.001090830782496456,,,,0.9938069231059026,0.08491241951293668,-0.07166771558770929,0.0011912773300663993
360864.022165978,3.22,3.92,8.33,0.0,-0.00545415391248228,-0.002181661564992912,,,,0.9937138294427933,0.08553803914000012,-0.07221292371005879,0.0011673403395433051
360864.035006411,3.24,3.88,8.370000000000001,-0.007635815477475192,-0.002181661564992912,0.001090830782496456,,,,0.9936466237804585,0.08596933971189533,-0.07262433319851055,0.0011687200984037082
360864.052021832,3.22,3.88,8.370000000000001,-0.001090830782496456,0.0,0.001090830782496456,,,,0.9935535880621926,0.08659872883216488,-0.07314742465666807,0.001175618770349596
360864.064928891,3.23,3.88,8.36,0.001090830782496456,0.001090830782496456,-0.003272492347489368,,,,0.9934819083253469,0.08709101508332927,-0.07353583901162371,0.0011546873339555411
360864.077692649,3.21,3.87,8.33,0.0,0.004363323129985824,-0.003272492347489368,,,,0.9934128089959146,0.08757187943212735,-0.07389768864660647,0.001135107158299683
360864.09360957,3.24,3.9,8.33,0.004363323129985824,0.004363323129985824,0.001090830782496456,,,,0.9933230491672229,0.08820250492816484,-0.07435267573888145,0.0011479233410175225
360864.110021642,3.23,3.9,8.3,0.00545415391248228,0.003272492347489368,-0.001090830782496456,,,,0.993228447986319,0.08886385831232754,-0.07482752247828997,0.0011430994250747654
360864.124287467,3.2,3.92,8.34,0.001090830782496456,0.0,0.0,,,,0.9931467398451417,0.08941212894705942,-0.07525770155699278,0.0011413537924314932
360864.141437581,3.23,3.91,8.3,0.001090830782496456,-0.003272492347489368,0.002181661564992912,,,,0.9930457253434924,0.09006441042992952,-0.07581063452713052,0.0011563059802793185
360864.15428275,3.23,3.88,8.3,-0.001090830782496456,-0.003272492347489368,-0.002181661564992912,,,,0.9929709018751448,0.09053850867129545,-0.07622512072931772,0.0011390551524651567
360864.170450847,3.22,3.91,8.4,-0.004363323129985824,-0.001090830782496456,0.0,,,,0.9928799413912989,0.09111197496635975,-0.07672512682804467,0.0011335403658518453
360864.183457077,3.24,3.88,8.36,-0.002181661564992912,0.002181661564992912,-0.004363323129985824,,,,0.9928067278061364,0.0915847228565347,-0.07710913806005684,0.0011048030589310314
360864.196321894,3.24,3.87,8.3,0.001090830782496456,0.001090830782496456,-0.002181661564992912,,,,0.9927314627125019,0.0920710950234094,-0.07749816188168049,0.00109147003976398
360864.212316065,3.23,3.89,8.370000000000001,0.0,0.002181661564992912,-0.001090830782496456,,,,0.992638859493814,0.09266964104967812,-0.07796960475368415,0.0010830443658180814
360864.226732711,3.21,3.89,8.36,0.006544984694978736,-0.003272492347489368,0.001090830782496456,,,,0.9925474251686324,0.09325688493267432,-0.07843196189973162,0.0010906678372499868
360864.242452473,3.2,3.89,8.34,0.00545415391248228,-0.002181661564992912,-0.001090830782496456,,,,0.9924486210813721,0.09389102793992495,-0.07892426092635367,0.0010818610337845636
360864.255286889,3.2,3.92,8.34,0.001090830782496456,-0.002181661564992912,0.002181661564992912,,,,0.992370125947424,0.09438164608314682,-0.07932492511517984,0.0010928244143889449
360864.272468684,3.23,3.92,8.32,-0.004363323129985824,-0.00545415391248228,0.0,,,,0.9922666492140616,0.09498900775823325,-0.07989250032457586,0.0010833533552382217
360864.285188985,3.23,3.89,8.35,-0.00545415391248228,-0.006544984694978736,-0.001090830782496456,,,,0.9921897222586686,0.0954297256123668,-0.08032173118197838,0.0010686504313251561
360864.302350043,3.24,3.85,8.36,-0.002181661564992912,-0.004363323129985824,0.001090830782496456,,,,0.9920841570619423,0.09604431196568274,-0.08089106946271592,0.0010725329422822322
360864.315247405,3.24,3.87,8.36,0.006544984694978736,-0.002181661564992912,0.0,,,,0.9920001007326629,0.09656431363582384,-0.08130178429375481,0.0010739409112917547
360864.328067453,3.24,3.89,8.33,0.007635815477475192,0.001090830782496456,0.002181661564992912,,,,0.991917154915737,0.09708853951003747,-0.08168832204858689,0.0010914763232131495
360864.343094392,3.24,3.9,8.33,0.004363323129985824,0.002181661564992912,-0.001090830782496456,,,,0.9918225188382735,0.09768134086427356,-0.08212957293008324,0.0010862884434007028
360864.355908359,3.23,3.93,8.32,0.004363323129985824,0.003272492347489368,0.0,,,,0.9917419898018354,0.09818968673678714,-0.08249500366683267,0.001088784844337211
360864.372753631,3.22,3.92,8.33,-0.004363323129985824,0.0,0.002181661564992912,,,,0.9916405160731662,0.09878350138479793,-0.08300417673474818,0.0011015356966587269
360864.385493356,3.21,3.91,8.36,-0.007635815477475192,-0.002181661564992912,0.001090830782496456,,,,0.9915643074639232,0.09921262532319658,-0.08340183893430805,0.0011010914790657016
360864.402750066,3.21,3.86,8.36,-0.003272492347489368,0.001090830782496456,-0.003272492347489368,,,,0.9914591957528872,0.09982813989765343,-0.08391579217789352,0.0010702638783381866
360864.415698438,3.21,3.84,8.36,0.002181661564992912,-0.001090830782496456,0.002181661564992912,,,,0.9913751527853452,0.10031996652447871,-0.08432102670362993,0.0010840719565094852
360864.428481429,3.22,3.87,8.35,0.009817477042468103,-0.004363323129985824,0.004363323129985824,,,,0.991285099648406,0.1008542238860981,-0.08474100267514202,0.001113195847177135
360864.44329668,3.21,3.91,8.35,0.011999138607461015,-0.001090830782496456,0.0,,,,0.9911806588724357,0.10149737653034353,-0.08519351516141972,0.0011175907583173153
360864.457531944,3.23,3.94,8.27,0.003272492347489368,-0.003272492347489368,0.001090830782496456,,,,0.9910847513586261,0.10205321643555126,-0.08564400917196041,0.0011226453233741766
360864.473507202,3.23,3.94,8.32,-0.004363323129985824,0.001090830782496456,0.002181661564992912,,,,0.9909857950369066,0.10261557160099884,-0.08611567617301205,0.0011352609107291559
360864.486359283,3.24,3.94,8.33,-0.008726646259971648,-0.003272492347489368,-0.002181661564992912,,,,0.990906306011582,0.1030414084479583,-0.08652122920138672,0.0011125416950343147
360864.503028965,3.25,3.88,8.34,-0.007635815477475192,0.002181661564992912,0.0,,,,0.9908056913888875,0.10359235453948439,-0.08701423819178475,0.001108306933017653
360864.515941048,3.22,3.86,8.35,-0.009817477042468103,0.008726646259971648,0.003272492347489368,,,,0.9907325399113336,0.10400470381009626,-0.08735434688755424,0.0011287276291180328
360864.529166837,3.21,3.86,8.370000000000001,0.003272492347489368,0.00545415391248228,-0.001090830782496456,,,,0.9906464305875599,0.10451641301765992,-0.08771944401489815,0.0011261064630583976
360864.54372656,3.2,3.88,8.290000000000001,0.008726646259971648,0.002181661564992912,-0.001090830782496456,,,,0.9905449423246384,0.10512216619452917,-0.08814071153746607,0.00112355654850889
360864.556566352,3.19,3.87,8.33,0.009817477042468103,0.002181661564992912,0.002181661564992912,,,,0.9904542530542948,0.10566134427413797,-0.08851410622756212,0.001142773633275732
360864.573288004,3.22,3.93,8.31,0.0,-0.00545415391248228,0.0,,,,0.9903386069078997,0.10628625848459496,-0.0890583302523514,0.0011352258495646436
360864.586112724,3.21,3.9,8.36,0.0,-0.007635815477475192,0.001090830782496456,,,,0.9902482071190374,0.1067631975077491,-0.08949200715780531,0.001135169732149615
360864.603282519,3.24,3.92,8.34,-0.004363323129985824,-0.006544984694978736,0.0,,,,0.9901314303637911,0.10736314877835909,-0.09006465359987363,0.0011238603488712693
360864.616870048,3.25,3.91,8.370000000000001,-0.00545415391248228,-0.006544984694978736,0.004363323129985824,,,,0.9900393174077263,0.10782563935549773,-0.09052332759509076,0.0011439604597128807
360864.629907192,3.24,3.9,8.39,0.004363323129985824,0.001090830782496456,-0.001090830782496456,,,,0.9899481988531195,0.10833611052740309,-0.09090958877921415,0.00113903961879745
360864.644325501,3.25,3.9,8.35,0.003272492347489368,0.006544984694978736,-0.001090830782496456,,,,0.9898514190252836,0.10889118057555151,-0.09129942575776227,0.0011374984826355535
360864.65769168,3.24,3.88,8.32,0.002181661564992912,0.008726646259971648,0.001090830782496456,,,,0.9897634307855308,0.10939600556042248,-0.09164899680060579,0.0011517085232663129
360864.673966308,3.21,3.91,8.31,0.003272492347489368,0.00545415391248228,-0.002181661564992912,,,,0.9896524476208908,0.11002976366734876,-0.09208793175594275,0.0011387933088985902
360864.686717202,3.22,3.89,8.31,-0.001090830782496456,0.009817477042468103,0.0,,,,0.9895707197931773,0.11049398029153268,-0.09240975414713427,0.0011437595086340544
360864.703475654,3.18,3.88,8.33,-0.002181661564992912,0.002181661564992912,0.002181661564992912,,,,0.9894579299375482,0.1110981030113182,-0.09289172308291677,0.0011593850418888212
360864.716441851,3.2,3.88,8.35,-0.002181661564992912,-0.004363323129985824,-0.001090830782496456,,,,0.9893663350569651,0.11156486511745248,-0.09330713702340802,0.0011463453967131406
360864.729215306,3.21,3.87,8.36,0.003272492347489368,-0.011999138607461015,0.002181661564992912,,,,0.9892672398025908,0.11205490209810223,-0.09376939279547909,0.0011524512638617656
360864.744091807,3.23,3.88,8.32,0.00545415391248228,-0.01090830782496456,0.002181661564992912,,,,0.9891502214979796,0.1126398564804111,-0.09430138461656966,0.0011622830844206062
360864.756919503,3.23,3.92,8.33,0.004363323129985824,-0.009817477042468103,0.002181661564992912,,,,0.9890503114218269,0.1131412466336978,-0.09474793507662402,0.0011698654948955052
360864.77344518,3.27,3.94,8.33,0.001090830782496456,-0.001090830782496456,-0.001090830782496456,,,,0.9889309351230785,0.11375902136283973,-0.0952530664654845,0.001159286023634606
360864.786275276,3.27,3.92,8.33,0.0,0.002181661564992912,-0.001090830782496456,,,,0.988840645675991,0.11422945976533654,-0.09562676374097108,0.001153272403768279
360864.803290314,3.22,3.89,8.34,-0.00545415391248228,0.009817477042468103,0.001090830782496456,,,,0.9887319473253873,0.11480946288576932,-0.09605500920063842,0.001165666116058949
360864.816255966,3.22,3.87,8.36,-0.003272492347489368,0.008726646259971648,0.001090830782496456,,,,0.988646478719226,0.11526302820291186,-0.09639082399452086,0.0011762207392255516
360864.829105487,3.19,3.86,8.33,0.002181661564992912,0.00545415391248228,-0.001090830782496456,,,,0.9885554208608217,0.11575108066253158,-0.09673929348256304,0.0011731618108145325
360864.844118377,3.19,3.89,8.370000000000001,0.004363323129985824,-0.003272492347489368,0.001090830782496456,,,,0.9884403361982943,0.11633931219637385,-0.09720841664053158,0.0011789606094044424
360864.856938777,3.21,3.9,8.34,0.003272492347489368,-0.003272492347489368,0.002181661564992912,,,,0.9883424372831191,0.11683227102811357,-0.09761162718208818,0.001190525321994557
360864.873574186,3.24,3.9,8.33,0.00545415391248228,-0.009817477042468103,0.0,,,,0.9882073707224194,0.1174864091156578,-0.09819233046437198,0.001184213226922158
360864.886340376,3.25,3.91,8.3,0.00545415391248228,-0.008726646259971648,0.002181661564992912,,,,0.9881038992881913,0.11798664885099593,-0.09863269951439124,0.0011939392311408183
360864.903433816,3.24,3.91,8.35,-0.006544984694978736,-0.003272492347489368,0.001090830782496456,,,,0.9879815061852132,0.11855750876797747,-0.09917276920845956,0.0011926433893728993
360864.916406061,3.24,3.9,8.36,-0.003272492347489368,0.0,0.002181661564992912,,,,0.9878878162252208,0.11900985432281767,-0.09956339141505337,0.001203419195068434
360864.92926019,3.23,3.88,8.36,-0.002181661564992912,0.003272492347489368,0.0,,,,0.9877959330331042,0.11946537819180592,-0.0999288215839043,0.001203625190916408
360864.944264248,3.22,3.88,8.35,0.0,0.003272492347489368,0.002181661564992912,,,,0.9876863035080612,0.12001290748135991,-0.10035525067992666,0.0012212949773642368
360864.957634874,3.22,3.86,8.36,0.006544984694978736,0.003272492347489368,0.001090830782496456,,,,0.987582965012547,0.12054218777997619,-0.10073700098470185,0.0012348339368546857
360864.97407514,3.21,3.91,8.290000000000001,0.00545415391248228,0.003272492347489368,-0.001090830782496456,,,,0.9874564913677929,0.1211941484616069,-0.10119358269589862,0.0012307946385895993
360864.986850963,3.21,3.91,8.34,0.003272492347489368,0.002181661564992912,0.0,,,,0.9873587815474647,0.12168600621147828,-0.1015560616940289,0.001232366262395321
360865.004289886,3.23,3.89,8.34,-0.002181661564992912,0.0,0.001090830782496456,,,,0.9872286882876095,0.12230242540924798,-0.10207889028262948,0.0012385150820332545
360865.017068109,3.23,3.9,8.35,-0.003272492347489368,-0.002181661564992912,0.0,,,,0.987132418266301,0.12274889143935995,-0.10247329971108662,0.0012334117133582197
360865.029910621,3.21,3.87,8.34,-0.001090830782496456,-0.003272492347489368,0.002181661564992912,,,,0.9870328701785083,0.12320923557691396,-0.1028788263175483,0.0012427997635410912
360865.044612589,3.24,3.89,8.33,0.001090830782496456,-0.007635815477475192,0.002181661564992912,,,,0.9869131748966844,0.12374980306560876,-0.10337700233002979,0.0012517371235663737
360865.057484639,3.24,3.9,8.35,0.003272492347489368,-0.006544984694978736,0.003272492347489368,,,,0.986806943812424,0.1242372623161908,-0.10380534373298043,0.0012684274671421758
360865.074048685,3.24,3.9,8.33,0.004363323129985824,0.0,0.0,,,,0.9866742278169464,0.12487596565897427,-0.10429931208919437,0.0012707715342259126
360865.086861276,3.24,3.91,8.36,0.001090830782496456,0.0,0.001090830782496456,,,,0.986573777069734,0.1253494534678149,-0.10468078186321836,0.001277036485063461
360865.103738485,3.23,3.89,8.32,-0.002181661564992912,0.006544984694978736,0.0,,,,0.9864502317190705,0.12594527462662947,-0.10512891277014236,0.001280562525902355
360865.116716586,3.19,3.88,8.34,-0.003272492347489368,0.003272492347489368,0.0,,,,0.9863535579863291,0.12640076644519443,-0.10548871886283828,0.0012787034269554133
360865.129499417,3.19,3.87,8.35,-0.001090830782496456,0.0,-0.001090830782496456,,,,0.9862540586199605,0.1268625619126746,-0.1058641182495335,0.0012691366582165994
360865.1445365,3.19,3.87,8.32,0.003272492347489368,-0.002181661564992912,0.001090830782496456,,,,0.9861306508914847,0.12743614063020817,-0.10632376333506457,0.0012754543832625407
360865.15731629,3.21,3.89,8.33,0.001090830782496456,-0.001090830782496456,0.002181661564992912,,,,0.9860278890984543,0.12790836059175784,-0.10670893217375185,0.0012872471064237624
360865.174294942,3.23,3.9,8.33,0.004363323129985824,-0.006544984694978736,0.002181661564992912,,,,0.9858822912181019,0.1285606100655898,-0.10726875582821702,0.0013005480288809381
360865.187116622,3.24,3.92,8.33,0.003272492347489368,-0.003272492347489368,0.002181661564992912,,,,0.9857750491393251,0.12904699080590712,-0.10766942314003031,0.0013122419725179449
360865.204111883,3.23,3.93,8.32,0.0,-0.002181661564992912,0.001090830782496456,,,,0.9856369712811068,0.12966840332307739,-0.10818564852747889,0.0013158556681124082
360865.217016894,3.24,3.92,8.34,-0.003272492347489368,0.001090830782496456,0.002181661564992912,,,,0.9855367413611357,0.13011586149860224,-0.10856073861756357,0.001326666710137013
360865.231213724,3.25,3.9,8.34,-0.006544984694978736,0.007635815477475192,-0.002181661564992912,,,,0.9854342421099536,0.13058404561388237,-0.10892859279505965,0.0013126995014484852
360865.245121201,3.2,3.86,8.36,-0.004363323129985824,0.004363323129985824,0.0,,,,0.9853290390166942,0.13105849774600584,-0.10930980693550768,0.0013119248149925035
360865.257849726,3.23,3.88,8.34,-0.003272492347489368,0.003272492347489368,0.001090830782496456,,,,0.9852307667565132,0.13149656644144916,-0.10966882362075017,0.0013184749234031305
360865.274658836,3.24,3.89,8.35,0.008726646259971648,-0.003272492347489368,0.0,,,,0.985081174653564,0.1321748370138449,-0.11019593498612536,0.0013220121222793815
360865.287561191,3.22,3.9,8.34,0.003272492347489368,0.003272492347489368,-0.001090830782496456,,,,0.9849752440978362,0.13266548630726938,-0.11055269859819719,0.0013183663829965024
360865.304360381,3.23,3.91,8.33,0.003272492347489368,-0.003272492347489368,0.001090830782496456,,,,0.9848306847174378,0.13330151896878584,-0.11107417788399383,0.0013245704934075145
360865.317227406,3.23,3.9,8.35,0.002181661564992912,0.0,0.0,,,,0.9847228323450693,0.13378105043992325,-0.1114532143572625,0.0013247682550012636
360865.330035678,3.22,3.88,8.36,-0.00545415391248228,0.002181661564992912,0.0,,,,0.9846232571305139,0.13420899183120796,-0.11181789299200387,0.0013216793020355369
360865.345040632,3.22,3.88,8.290000000000001,-0.002181661564992912,0.003272492347489368,0.002181661564992912,,,,0.984503825964875,0.13473242030177077,-0.11223903658299159,0.0013380011480381019
360865.357900457,3.21,3.89,8.35,0.001090830782496456,0.0,0.0,,,,0.9843959610924434,0.13520600798375298,-0.11261500747576056,0.0013368923727439994
360865.374727648,3.24,3.89,8.35,0.004363323129985824,0.0,0.001090830782496456,,,,0.9842505449777755,0.13584518757490077,-0.11311555591255765,0.0013493458730387598
360865.387863163,3.21,3.88,8.34,0.002181661564992912,0.001090830782496456,0.0,,,,0.9841393973214227,0.13633406190400812,-0.113493817481213,0.001350406650527814
360865.404681681,3.22,3.9,8.31,0.0,-0.002181661564992912,0.001090830782496456,,,,0.9839959416746085,0.13694184898360912,-0.11400474433866992,0.001354633945174539
360865.4175969,3.21,3.89,8.32,-0.002181661564992912,-0.003272492347489368,0.001090830782496456,,,,0.9838865218410936,0.1373948539831222,-0.11440336413532627,0.001355180029322644
360865.430440149,3.23,3.87,8.33,-0.003272492347489368,-0.001090830782496456,0.0,,,,0.983779952005918,0.1378331663084123,-0.11479197480862882,0.0013515976348386068
360865.445232648,3.23,3.89,8.34,-0.001090830782496456,-0.001090830782496456,-0.001090830782496456,,,,0.9836546059632628,0.1383577606724501,-0.11523432407609188,0.0013404416024262046
360865.458072408,3.22,3.9,8.370000000000001,0.0,-0.003272492347489368,0.003272492347489368,,,,0.9835428432414183,0.13881960027423926,-0.11563197909407825,0.0013562813403192998
360865.474808332,3.22,3.87,8.36,0.006544984694978736,-0.001090830782496456,0.002181661564992912,,,,0.9833911430473282,0.13947087135822084,-0.11613714350732626,0.0013783020737803675
360865.48755481,3.21,3.92,8.35,0.00545415391248228,-0.001090830782496456,0.0,,,,0.9832762143195547,0.13996974110734525,-0.11650947834304916,0.0013781814025855775
360865.50453247,3.23,3.91,8.36,-0.001090830782496456,-0.001090830782496456,0.0,,,,0.9831303605661894,0.14057300159098113,-0.11701298675955092,0.0013734213867645831
360865.517389831,3.23,3.9,8.290000000000001,-0.001090830782496456,0.002181661564992912,-0.002181661564992912,,,,0.983022009955333,0.14102984874854568,-0.11737317318810242,0.001359382615494553
360865.530240696,3.22,3.86,8.3,-0.00545415391248228,-0.003272492347489368,0.0,,,,0.9829132260271127,0.14145312529953075,-0.11777425585763435,0.0013520729084773122
360865.545217328,3.2,3.89,8.36,-0.003272492347489368,-0.003272492347489368,0.003272492347489368,,,,0.9827837443731651,0.14196855132275416,-0.11823355774674243,0.001366767620160926
360865.557979486,3.22,3.87,8.33,0.002181661564992912,-0.002181661564992912,0.0,,,,0.9826689391349641,0.1424380286321998,-0.11862250639723382,0.001365662760433182
360865.575033373,3.24,3.91,8.34,0.004363323129985824,-0.008726646259971648,-0.002181661564992912,,,,0.9825057206870303,0.1430885942539867,-0.11919047507655894,0.0013392769323125903
360865.58781582,3.25,3.93,8.34,0.003272492347489368,-0.001090830782496456,0.001090830782496456,,,,0.982389745286236,0.14356772750417882,-0.1195695813155099,0.0013458082195296843
360865.604891083,3.24,3.9,8.3,0.002181661564992912,0.0,-0.003272492347489368,,,,0.9822367948422868,0.1441992818695375,-0.12006542241712108,0.0013192066023277565
360865.617707227,3.23,3.91,8.31,-0.003272492347489368,0.0,-0.003272492347489368,,,,0.9821266768531007,0.14464183448067802,-0.12043361472577155,0.0012941312273547691
360865.630572396,3.21,3.88,8.36,-0.007635815477475192,0.003272492347489368,0.0,,,,0.9820224285425093,0.14505502104743292,-0.12078629017822347,0.0012895012148481273
360865.64579979,3.22,3.86,8.32,-0.002181661564992912,0.001090830782496456,-0.001090830782496456,,,,0.9818906390702412,0.14557989260652412,-0.12122552907007632,0.0012801861530527356
360865.658683232,3.18,3.86,8.3,0.0,0.0,-0.00545415391248228,,,,0.9817759632625446,0.14604836999329732,-0.12159065021552681,0.0012431260471669403
360865.67524059,3.25,3.9,8.36,0.002181661564992912,-0.004363323129985824,0.002181661564992912,,,,0.9816209479472435,0.146651320833066,-0.12211520817299677,0.0012572119701407057
360865.688214627,3.24,3.9,8.36,0.001090830782496456,-0.002181661564992912,0.001090830782496456,,,,0.9815018637176346,0.14711937856622476,-0.1225087246024964,0.0012618896019557684
360865.704931222,3.2600000000000002,3.92,8.34,0.0,-0.004363323129985824,0.0,,,,0.9813470402838509,0.1477135140414741,-0.1230330372353775,0.001255406023336382
360865.717779303,3.22,3.91,8.39,0.0,0.001090830782496456,0.002181661564992912,,,,0.98123200011363,0.14817422486190168,-0.12339592662176563,0.0012674118255851083
360865.730727099,3.25,3.92,8.36,-0.001090830782496456,0.001090830782496456,-0.001090830782496456,,,,0.9811168047406041,0.14862978885072275,-0.12376354798016771,0.0012591716076338765
360865.745187266,3.2,3.87,8.33,-0.001090830782496456,0.003272492347489368,-0.002181661564992912,,,,0.9809897757695186,0.14914117047697936,-0.12415483731945703,0.0012439753234620838
360865.758320253,3.22,3.9,8.34,-0.002181661564992912,0.00545415391248228,-0.002181661564992912,,,,0.9808769393722443,0.14959912806816,-0.12449503939221221,0.0012312009245783312
360865.775005711,3.2,3.88,8.35,-0.001090830782496456,0.001090830782496456,-0.002181661564992912,,,,0.9807272626808626,0.15019045222976732,-0.1249615907799046,0.0012104227674843142
360865.787857952,3.21,3.87,8.32,0.001090830782496456,-0.003272492347489368,-0.001090830782496456,,,,0.9806059732616673,0.15065490958572797,-0.12535383283006765,0.0012000066940247378
360865.804978305,3.23,3.87,8.32,-0.001090830782496456,-0.003272492347489368,0.001090830782496456,,,,0.9804466829570464,0.1512473433611926,-0.12588524147959868,0.0012037368190693032
360865.81841271,3.23,3.91,8.34,0.002181661564992912,-0.008726646259971648,-0.001090830782496456,,,,0.9803133616276184,0.15174239056055175,-0.1263271558351305,0.0011872741613222577
360865.831668228,3.24,3.9,8.34,0.0,-0.009817477042468103,-0.001090830782496456,,,,0.9801826966514624,0.15221284444988434,-0.12677446162536837,0.0011692087669236246
360865.845519639,3.24,3.91,8.33,-0.001090830782496456,-0.003272492347489368,0.003272492347489368,,,,0.9800526403407233,0.15269487608796198,-0.12719941938497864,0.0011851944073452368
360865.859074784,3.24,3.89,8.34,-0.003272492347489368,0.001090830782496456,0.001090830782496456,,,,0.9799310565376858,0.15315034252394433,-0.1275879339056876,0.0011900165593100428
360865.875325667,3.23,3.89,8.32,0.0,0.004363323129985824,-0.003272492347489368,,,,0.9797842409293558,0.15372925397239554,-0.12801872620362417,0.0011676646686520076
360865.888163604,3.2,3.88,8.36,-0.004363323129985824,0.011999138607461015,0.0,,,,0.9796785417492544,0.15416061232695877,-0.12830855086102885,0.0011731235972493991
360865.904809989,3.21,3.89,8.3,0.002181661564992912,0.007635815477475192,-0.001090830782496456,,,,0.9795280324210368,0.15477325106302672,-0.12871945594212386,0.0011730808656780862
360865.917631765,3.2,3.88,8.3,0.006544984694978736,0.003272492347489368,0.0,,,,0.9794038173000431,0.1552715175330168,-0.12906404603353525,0.001179204202649144
360865.930513351,3.19,3.91,8.31,0.0,0.002181661564992912,0.002181661564992912,,,,0.9792843911255337,0.15573579621411113,-0.1294103019408784,0.0011903054315579595
360865.945413693,3.22,3.91,8.33,-0.001090830782496456,-0.004363323129985824,0.0,,,,0.9791407713045696,0.1562594140380421,-0.12986512471921613,0.0011810483660361058
360865.958409043,3.23,3.91,8.3,-0.00545415391248228,-0.009817477042468103,0.001090830782496456,,,,0.9790149645876691,0.1566851429651985,-0.1303000116408025,0.0011713469969323502
360865.975681881,3.22,3.89,8.35,-0.009817477042468103,-0.00545415391248228,0.002181661564992912,,,,0.9788580869635158,0.15721121843415156,-0.13084384555587233,0.0011689588216301611
360865.988682799,3.24,3.89,8.4,-0.009817477042468103,-0.007635815477475192,-0.002181661564992912,,,,0.9787378372980209,0.15760665985436229,-0.13126724918067753,0.001138377477858036
360866.005403842,3.27,3.84,8.370000000000001,0.0,-0.004363323129985824,-0.001090830782496456,,,,0.9785734579878392,0.15817281981743025,-0.1318107356947219,0.001129755876951239
360866.018117743,3.24,3.88,8.39,0.006544984694978736,-0.003272492347489368,-0.002181661564992912,,,,0.9784423563732105,0.1586595362003658,-0.13219854962496386,0.0011181701928340353
360866.031060259,3.23,3.88,8.370000000000001,0.00545415391248228,0.007635815477475192,0.001090830782496456,,,,0.9783189989434634,0.15914721873207346,-0.1325247416220925,0.0011366327915687709
360866.045822612,3.24,3.92,8.32,0.008726646259971648,0.01090830782496456,-0.003272492347489368,,,,0.9781773231101921,0.15973660257359495,-0.1328610633152345,0.0011314618727611392
360866.059107892,3.21,3.92,8.28,0.006544984694978736,0.00545415391248228,-0.00545415391248228,,,,0.9780470378388725,0.16026080988687824,-0.1331887688898861,0.0011029191292084382
360866.076361081,3.19,3.89,8.31,-0.004363323129985824,0.004363323129985824,0.0,,,,0.977891161757743,0.16084149747961685,-0.13363263800247435,0.0010984102629677476
360866.088761723,3.17,3.91,8.32,-0.006544984694978736,0.0,-0.003272492347489368,,,,0.9777775262179401,0.16125622551930824,-0.13396418121444603,0.0010663516935849593
360866.105772472,3.21,3.89,8.35,-0.004363323129985824,-0.009817477042468103,0.002181661564992912,,,,0.9776067723569491,0.16181946869973493,-0.13453002903249026,0.0010627700038375624
360866.118746733,3.22,3.87,8.36,-0.004363323129985824,-0.011999138607461015,0.002181661564992912,,,,0.9774742263869561,0.1622427773421673,-0.13498257300525546,0.0010596859923711118
360866.131534556,3.24,3.89,8.35,0.002181661564992912,-0.013089969389957472,-0.001090830782496456,,,,0.9773355171998293,0.16270312246443336,-0.13543226203558553,0.001040749725073763
360866.147424404,3.24,3.89,8.34,0.001090830782496456,-0.007635815477475192,0.0,,,,0.9771699419175478,0.1632654433090004,-0.13594938729372158,0.001031372112116819
360866.162531473,3.25,3.92,8.3,0.0,0.004363323129985824,-0.001090830782496456,,,,0.9770257612366572,0.1637971512684933,-0.1363455220685717,0.0010265125939253282
360866.177075771,3.24,3.91,8.36,0.001090830782496456,0.003272492347489368,-0.001090830782496456,,,,0.976884213648904,0.16431694620459059,-0.13673379563069374,0.0010214920380524535
360866.189400154,3.22,3.86,8.31,0.0,0.006544984694978736,-0.001090830782496456,,,,0.976767842916214,0.16474518145255532,-0.13704949006770384,0.0010215210000234908
360866.20589255,3.19,3.88,8.33,0.003272492347489368,0.01090830782496456,-0.002181661564992912,,,,0.9766123050704371,0.1653608123600314,-0.13741605744936233,0.0010170917911987902
360866.219266792,3.19,3.9,8.34,0.0,0.007635815477475192,0.0,,,,0.9764864861761229,0.1658401998531554,-0.137732095957912,0.0010198877952166186
360866.231557223,3.17,3.89,8.32,0.002181661564992912,-0.002181661564992912,-0.001090830782496456,,,,0.9763601031903552,0.16629738224336588,-0.13807648580401397,0.00100678951971044
360866.24734009,3.21,3.88,8.290000000000001,0.0,-0.006544984694978736,0.0,,,,0.9761953159066159,0.16685031872897574,-0.13857375077287218,0.000995961223912982
360866.261647548,3.23,3.89,8.34,-0.003272492347489368,-0.01090830782496456,-0.001090830782496456,,,,0.9760450888192692,0.16732629364887086,-0.13905737269090557,0.0009711569489536359
360866.276898462,3.24,3.88,8.35,-0.004363323129985824,-0.009817477042468103,-0.001090830782496456,,,,0.9758870654580334,0.16781972101092046,-0.13957105842525508,0.0009467637397662276
360866.289116794,3.24,3.89,8.36,-0.002181661564992912,-0.007635815477475192,-0.001090830782496456,,,,0.9757597636651906,0.16823044286608285,-0.1399661967467258,0.0009303082231937538
360866.306216634,3.27,3.85,8.36,-0.002181661564992912,-0.002181661564992912,0.002181661564992912,,,,0.9755878027066925,0.16877676276443218,-0.14050601360043333,0.0009506328424257923
360866.319200112,3.2600000000000002,3.89,8.38,-0.001090830782496456,0.00545415391248228,0.001090830782496456,,,,0.9754625729496788,0.16921248079277762,-0.14085089975792078,0.0009639272434499738
360866.331578897,3.24,3.89,8.36,0.00545415391248228,0.011999138607461015,-0.002181661564992912,,,,0.9753417876371611,0.1696754725664173,-0.1411300649192933,0.0009675091659110301
360866.346876788,3.22,3.9,8.25,0.004363323129985824,0.008726646259971648,-0.002181661564992912,,,,0.9751900722105676,0.17024790314378838,-0.141488678496568,0.0009635322444209712
360866.359149906,3.2,3.91,8.31,0.001090830782496456,0.008726646259971648,0.0,,,,0.9750715683883517,0.17069279967218765,-0.14176906495944022,0.0009679262762452732
360866.376258194,3.21,3.91,8.31,-0.002181661564992912,0.0,0.0,,,,0.9749001103859025,0.1712811462295274,-0.14223791353760654,0.0009589933903732382
360866.389058018,3.18,3.89,8.31,-0.003272492347489368,-0.003272492347489368,0.0,,,,0.974769787796774,0.17171865400049574,-0.14260318931598587,0.0009460781147903154
360866.405690898,3.23,3.87,8.33,-0.002181661564992912,-0.013089969389957472,0.0,,,,0.9745866061131969,0.17226971643405894,-0.14318950527969837,0.0009260465671631407
360866.418432351,3.24,3.87,8.34,-0.004363323129985824,-0.007635815477475192,-0.001090830782496456,,,,0.9744532968037084,0.17267650802891077,-0.14360630272665295,0.0009087026500047373
360866.431452118,3.25,3.91,8.370000000000001,0.001090830782496456,-0.009817477042468103,0.002181661564992912,,,,0.9743085516425012,0.17313135152840972,-0.14404010025233127,0.0009115007056803743
360866.446535602,3.2600000000000002,3.89,8.35,0.002181661564992912,-0.006544984694978736,0.001090830782496456,,,,0.9741425843183635,0.17365766482910533,-0.14452820719427129,0.0009155265435351401
360866.459304256,3.2600000000000002,3.89,8.35,0.003272492347489368,0.0,-0.003272492347489368,,,,0.9740066005592741,0.17411392780646837,-0.14489538396999596,0.0008999527533058944
360866.476635688,3.24,3.9,8.370000000000001,0.002181661564992912,0.006544984694978736,-0.001090830782496456,,,,0.9738314287956352,0.1747330736384476,-0.1453268347366879,0.0009013168854508911
360866.488841828,3.21,3.88,8.33,-0.001090830782496456,0.009817477042468103,-0.002181661564992912,,,,0.9737141960922584,0.17515424424849357,-0.14560513040346174,0.0008950141545926653
360866.505258765,3.17,3.86,8.32,0.001090830782496456,0.01090830782496456,-0.001090830782496456,,,,0.9735544529508762,0.1757466869102562,-0.14595899089192615,0.000895632401884674
360866.518242978,3.17,3.87,8.33,-0.002181661564992912,0.007635815477475192,-0.002181661564992912,,,,0.9734284980653428,0.17619759958396197,-0.14625521454841955,0.0008816305895510854
360866.530522368,3.18,3.89,8.35,0.001090830782496456,0.003272492347489368,-0.002181661564992912,,,,0.973301705804643,0.17664507625375508,-0.1465590548418793,0.0008660005382215554
360866.546744291,3.22,3.89,8.290000000000001,0.00545415391248228,-0.007635815477475192,-0.003272492347489368,,,,0.9731143341467284,0.17725319632364095,-0.14706835985361888,0.0008334273746102922
360866.55913322,3.23,3.9,8.31,0.002181661564992912,-0.011999138607461015,0.0,,,,0.9729704589015509,0.17769413431450448,-0.14748765100669076,0.000820692179306785
360866.575652625,3.2600000000000002,3.91,8.34,-0.003272492347489368,-0.009817477042468103,0.001090830782496456,,,,0.9727887920790019,0.17822719511602247,-0.14804179432048367,0.0008124413352318073
360866.588703337,3.2600000000000002,3.89,8.35,-0.00545415391248228,-0.01090830782496456,0.0,,,,0.9726464286506779,0.17862958564645953,-0.14849161522382276,0.0007976045864230528
360866.604327415,3.2600000000000002,3.86,8.36,-0.00545415391248228,-0.001090830782496456,-0.001090830782496456,,,,0.9724871397777033,0.17910057021891435,-0.1489668609699308,0.0007893332674155297
360866.617614423,3.25,3.86,8.39,-0.004363323129985824,0.004363323129985824,-0.002181661564992912,,,,0.9723554469261684,0.17951302595921229,-0.14932966181575594,0.000781310418874941
360866.630561259,3.24,3.86,8.39,-0.003272492347489368,0.008726646259971648,-0.001090830782496456,,,,0.9722297944339943,0.1799245504999074,-0.14965215234672716,0.0007850097015599952
360866.646590919,3.22,3.89,8.3,0.007635815477475192,0.01090830782496456,0.0,,,,0.972060716421753,0.18053982951962505,-0.15000894635177217,0.0008059535247856312
360866.659196848,3.2,3.9,8.32,0.007635815477475192,0.01090830782496456,-0.003272492347489368,,,,0.971927585518889,0.18103656474942378,-0.1502727288667131,0.0007985550086601086
360866.676157099,3.2,3.92,8.31,0.00545415391248228,0.001090830782496456,0.001090830782496456,,,,0.9717389579986564,0.1816876381740539,-0.15070618076994646,0.0008041891294772914
360866.68895177,3.17,3.92,8.34,-0.001090830782496456,0.001090830782496456,0.002181661564992912,,,,0.9716042946380277,0.18214910201316065,-0.15101706243191373,0.0008038228507337035
360866.704134746,3.2,3.89,8.26,-0.002181661564992912,-0.011999138607461015,0.0,,,,0.9714299912054893,0.18266419218046354,-0.15151553840599574,0.0007789114858230148
360866.717567455,3.23,3.86,8.35,-0.009817477042468103,-0.009817477042468103,0.00545415391248228,,,,0.9712869743707119,0.18304012273393083,-0.15197793416791436,0.0007965007148651258
360866.730415087,3.24,3.86,8.39,-0.007635815477475192,-0.013089969389957472,-0.002181661564992912,,,,0.9711442121518242,0.18341661897241668,-0.15243581407250126,0.0007652952331150793
360866.746623154,3.29,3.87,8.32,0.00545415391248228,-0.007635815477475192,-0.001090830782496456,,,,0.970951263950983,0.1839721198834405,-0.15299449357813472,0.0007662064681226688
360866.759158424,3.2800000000000002,3.89,8.31,0.007635815477475192,-0.00545415391248228,0.001090830782496456,,,,0.9708009916624459,0.18442520247268795,-0.153401989967364,0.0007802270005789103
360866.774611617,3.24,3.91,8.36,0.0,0.01090830782496456,0.001090830782496456,,,,0.9706455512142891,0.18495680100089368,-0.15374509956267005,0.0008000199307006869
360866.787526036,3.24,3.87,8.34,-0.003272492347489368,0.008726646259971648,-0.001090830782496456,,,,0.9705171521772158,0.18536571526193438,-0.15406285458605035,0.0008035994375550293
360866.800343876,3.22,3.88,8.32,-0.002181661564992912,0.007635815477475192,-0.003272492347489368,,,,0.9703871067288684,0.18579401671173676,-0.15436588142753638,0.0007880987214294503
360866.816889393,3.19,3.87,8.4,-0.006544984694978736,0.007635815477475192,-0.003272492347489368,,,,0.9702258153006472,0.18632682927180164,-0.15473722203548113,0.0007563956991923911
360866.829643391,3.18,3.88,8.38,-0.004363323129985824,0.004363323129985824,0.0,,,,0.9700955811438416,0.18675650867843901,-0.15503551918152617,0.0007467955188584965
360866.846536216,3.22,3.94,8.32,0.007635815477475192,-0.00545415391248228,-0.001090830782496456,,,,0.9698908466504406,0.18742567995834603,-0.1555083091769773,0.0007251570595907265
360866.859329511,3.21,3.95,8.34,0.008726646259971648,-0.009817477042468103,-0.002181661564992912,,,,0.9697300283388692,0.18794868799382275,-0.15587970044738783,0.0006941237131660059
360866.874103929,3.25,3.93,8.34,-0.004363323129985824,-0.007635815477475192,-0.001090830782496456,,,,0.9695639243567982,0.18842575747071472,-0.15633644883469477,0.0006672879358446882
360866.888202772,3.25,3.88,8.34,-0.004363323129985824,-0.007635815477475192,-0.001090830782496456,,,,0.969405152828907,0.18885631369469605,-0.15680088793215138,0.0006511452241738495
360866.900483666,3.24,3.87,8.370000000000001,-0.01090830782496456,-0.008726646259971648,-0.001090830782496456,,,,0.9692731227143527,0.18919306196539265,-0.15721069654783315,0.0006291094274330581
360866.917150916,3.23,3.83,8.42,-0.014180800172453928,0.003272492347489368,0.0,,,,0.969114950460714,0.18959816430855034,-0.15769702046595582,0.0006313640120834009
360866.930033174,3.22,3.83,8.36,0.003272492347489368,0.003272492347489368,-0.001090830782496456,,,,0.9689708960593701,0.19003142206950097,-0.15806027798692063,0.0006401084610274024
360866.946613252,3.2,3.86,8.34,0.01090830782496456,0.003272492347489368,0.003272492347489368,,,,0.9687728166729007,0.19068485896830947,-0.15848675389922545,0.0006804956845451308
360866.959276015,3.23,3.93,8.34,0.015271630954950384,0.002181661564992912,0.001090830782496456,,,,0.9686150268834762,0.19122657852184927,-0.15879811718102466,0.0006952281001159158
360866.973409163,3.23,3.92,8.3,0.002181661564992912,0.002181661564992912,-0.003272492347489368,,,,0.968456125967379,0.1917394400999824,-0.15914857887969355,0.0006700947511918482
360866.987667852,3.22,3.95,8.3,-0.002181661564992912,0.0,-0.002181661564992912,,,,0.9682995410388056,0.19224557968076178,-0.15949053908611258,0.0006354992271624721
360867.000516925,3.23,3.93,8.34,-0.013089969389957472,0.0,0.0,,,,0.9681712466124233,0.1926176231773918,-0.1598202521690677,0.0006127569291985473
360867.017265681,3.23,3.84,8.34,-0.017453292519943295,-0.008726646259971648,-0.003272492347489368,,,,0.9679993475996227,0.1929996566516221,-0.16039973835351057,0.0005652567437454505
360867.029979261,3.21,3.85,8.39,-0.009817477042468103,-0.004363323129985824,0.001090830782496456,,,,0.967863249289019,0.19335815805290635,-0.16078880883165225,0.0005588779725985224
360867.046772147,3.24,3.85,8.39,0.007635815477475192,-0.007635815477475192,0.002181661564992912,,,,0.9676508146419779,0.1939376382983121,-0.16136835040318467,0.0005906455322583405
360867.059827691,3.22,3.86,8.36,0.013089969389957472,-0.002181661564992912,-0.002181661564992912,,,,0.967483686058009,0.19445519828125502,-0.16174716596247055,0.0005893862185992515
360867.075065901,3.25,3.94,8.32,0.011999138607461015,0.0,-0.001090830782496456,,,,0.9672927163534732,0.19508011449351068,-0.1621363853415159,0.0005851214450475802
360867.088943616,3.24,3.95,8.31,0.006544984694978736,0.007635815477475192,-0.001090830782496456,,,,0.9671347415897136,0.19562430587583277,-0.16242286162469868,0.0005801572551205538
360867.102812755,3.22,3.94,8.28,-0.007635815477475192,0.002181661564992912,-0.002181661564992912,,,,0.966989983694151,0.1960816625642998,-0.1627330951260923,0.0005411024744120662
360867.118682986,3.2,3.91,8.33,-0.015271630954950384,0.003272492347489368,0.001090830782496456,,,,0.9668375450110634,0.19654562609489615,-0.1630788665859474,0.0005115593690532581
360867.130928519,3.22,3.86,8.36,-0.014180800172453928,0.002181661564992912,-0.002181661564992912,,,,0.9667165269516877,0.1968573201586462,-0.16342003790144208,0.0004931842600069803
360867.147865154,3.19,3.85,8.370000000000001,-0.001090830782496456,-0.003272492347489368,0.0,,,,0.9665193978359324,0.19742924103454548,-0.1638954504293771,0.00047929108233634284
360867.161085279,3.21,3.86,8.36,0.00545415391248228,-0.006544984694978736,0.0,,,,0.9663530069898661,0.19790136967294922,-0.16430668085790168,0.0004779002763586673
360867.177713807,3.24,3.89,8.36,0.01090830782496456,-0.006544984694978736,0.003272492347489368,,,,0.96613425207672,0.19852744057242053,-0.16483688758800877,0.0005126345865400369
360867.190553312,3.24,3.93,8.33,0.008726646259971648,-0.00545415391248228,0.0,,,,0.9659692196691936,0.19903537243318523,-0.16519120401689139,0.0005032767850737064
360867.207270675,3.24,3.92,8.32,-0.004363323129985824,-0.001090830782496456,-0.001090830782496456,,,,0.9657814794456387,0.19958113777272998,-0.16562993827538125,0.0004763948249856347
360867.220156677,3.23,3.92,8.35,-0.01090830782496456,0.00545415391248228,-0.002181661564992912,,,,0.9656523064965593,0.19997607528628056,-0.1659065858214226,0.000443905451525662
360867.232437987,3.24,3.9,8.33,-0.00545415391248228,0.00545415391248228,-0.00545415391248228,,,,0.9655218012937088,0.20035547679846272,-0.1662081924711076,0.00041339920162894634
360867.248353788,3.18,3.87,8.35,-0.002181661564992912,0.00545415391248228,-0.001090830782496456,,,,0.9653498809233163,0.20094411387517416,-0.16649603434274227,0.00037556410967671806
360867.26054351,3.2,3.84,8.36,0.003272492347489368,0.003272492347489368,-0.001090830782496456,,,,0.9652077440132932,0.20132862050210157,-0.16685515661075054,0.0003926523802853625
360867.277315499,3.19,3.9,8.36,0.007635815477475192,-0.001090830782496456,0.0,,,,0.9650026037730645,0.202051234479676,-0.16716803053901994,0.0003506025535085534
360867.290157404,3.21,3.9,8.28,0.006544984694978736,-0.00545415391248228,0.001090830782496456,,,,0.9648382781723924,0.2025464432395678,-0.16751691552326234,0.0003439736993938107
360867.304657829,3.21,3.91,8.28,-0.001090830782496456,-0.009817477042468103,0.0,,,,0.9646588204743989,0.20306627903830785,-0.16792067228616786,0.00030694859356469233
360867.319468024,3.24,3.9,8.35,-0.007635815477475192,-0.009817477042468103,0.003272492347489368,,,,0.9644843833950678,0.2034638992453977,-0.16844053353661434,0.0003202386537592633
360867.331696404,3.2600000000000002,3.89,8.35,-0.009817477042468103,-0.002181661564992912,-0.001090830782496456,,,,0.9643538986636364,0.2037181530806277,-0.1688797168846162,0.0003368421511236612
360867.348077052,3.23,3.87,8.39,-0.007635815477475192,0.0,-0.002181661564992912,,,,0.9641792920470975,0.20406203484368415,-0.16946046011681606,0.00036218781039343187
360867.360923917,3.24,3.87,8.38,0.0,0.003272492347489368,0.003272492347489368,,,,0.964038275772992,0.20434117041406644,-0.169925561236563,0.00043881304122524525
360867.377660353,3.23,3.85,8.33,0.00545415391248228,0.003272492347489368,-0.001090830782496456,,,,0.9638476705555761,0.20472569926639198,-0.17054262018870336,0.0005203111071134132
360867.390480977,3.22,3.92,8.34,0.009817477042468103,0.00545415391248228,-0.001090830782496456,,,,0.9637040439553052,0.2053403318371635,-0.17061551914674755,0.00045652106278508604
360867.405379655,3.23,3.92,8.33,0.004363323129985824,0.004363323129985824,-0.001090830782496456,,,,0.9635333604482395,0.20597502189248107,-0.1708144920843648,0.00040367521066701366
360867.419115029,3.24,3.94,8.33,-0.002181661564992912,0.00545415391248228,-0.003272492347489368,,,,0.9633852350414123,0.206512902915845,-0.17100057118921527,0.00033835844276796284
360867.431946118,3.21,3.91,8.36,-0.007635815477475192,-0.001090830782496456,0.0,,,,0.9633138070669287,0.2070231734322215,-0.17078606970187604,0.00018213198066833103
360867.448553237,3.19,3.86,8.36,-0.008726646259971648,-0.004363323129985824,-0.001090830782496456,,,,0.9635196540942824,0.20636628122583148,-0.17041949581191412,0.000172029847878253
360867.461469256,3.22,3.85,8.32,-0.00545415391248228,-0.009817477042468103,0.0,,,,0.9634677267699977,0.20608965112601915,-0.17104646924462352,0.0003170652248487502
360867.478809233,3.23,3.88,8.4,0.0,-0.01090830782496456,0.004363323129985824,,,,0.9636373641445121,0.20533729535982503,-0.17099542926711886,0.0004344291459785047
360867.491767333,3.25,3.86,8.36,0.006544984694978736,-0.004363323129985824,-0.002181661564992912,,,,0.9635207509488563,0.20536825598596595,-0.17161392226465344,0.0005510074197227388
360867.508354484,3.2600000000000002,3.91,8.34,0.00545415391248228,0.0,-0.002181661564992912,,,,0.9633155192651907,0.20601963373283616,-0.1719850495119324,0.0005134236091064845
360867.520859322,3.24,3.91,8.36,0.0,0.004363323129985824,0.001090830782496456,,,,0.9632029785544873,0.20657978932088464,-0.1719436966816324,0.0004218048808703449
360867.53403567,3.2600000000000002,3.9,8.3,-0.00545415391248228,0.008726646259971648,-0.003272492347489368,,,,0.9630645904371621,0.20691842843781583,-0.17231126394850638,0.0004323602593924742
360867.548921547,3.19,3.89,8.34,-0.00545415391248228,0.009817477042468103,-0.002181661564992912,,,,0.9631859476543658,0.20698400555053723,-0.17155286159270533,0.00025955109462294805
360867.561724827,3.2,3.91,8.35,-0.004363323129985824,0.007635815477475192,0.001090830782496456,,,,0.963211285555958,0.20731697014508244,-0.17100784564378954,9.997885592792833e-05
360867.578482031,3.21,3.88,8.33,0.002181661564992912,0.001090830782496456,-0.002181661564992912,,,,0.9633237209680892,0.20659946870957005,-0.1712425015467059,0.0002716857465604915
360867.591310336,3.18,3.9,8.35,0.001090830782496456,-0.003272492347489368,0.0,,,,0.963356979913252,0.20688158880895258,-0.17071416774314158,0.00010196111145954276
360867.608190904,3.22,3.9,8.32,-0.002181661564992912,-0.009817477042468103,0.001090830782496456,,,,0.9631453480045051,0.20740596143093423,-0.17127111991481678,9.62461173087714e-05
360867.620610715,3.24,3.89,8.34,0.001090830782496456,-0.009817477042468103,0.0,,,,0.9630701570729292,0.2072421368754307,-0.17189099340518446,0.00023589194050225844
360867.633480844,3.27,3.92,8.35,-0.00545415391248228,-0.003272492347489368,0.0,,,,0.9629280470995787,0.2074817148664544,-0.17239731725578528,0.000281261577624686
360867.648677261,3.23,3.87,8.36,-0.004363323129985824,0.001090830782496456,-0.002181661564992912,,,,0.9631131341142566,0.20685873219757123,-0.17211176766896055,0.0003086099374731101
360867.661703651,3.2600000000000002,3.88,8.36,-0.001090830782496456,0.0,0.0,,,,0.9631110652162937,0.2064597367042302,-0.17260133331318203,0.0004826142018100921
360867.679150895,3.24,3.89,8.33,0.004363323129985824,0.006544984694978736,-0.001090830782496456,,,,0.9629589993703599,0.20728370611285712,-0.17246251643679475,0.0003333707279575023
360867.691460302,3.24,3.92,8.36,0.002181661564992912,0.008726646259971648,-0.001090830782496456,,,,0.9629253727990489,0.20777225223707835,-0.17206215446263515,0.00018061511840792798
360867.708152609,3.21,3.91,8.3,0.003272492347489368,0.003272492347489368,-0.002181661564992912,,,,0.9628318452486165,0.2085098007899111,-0.17169304022245238,-2.624627953535764e-05
360867.720970896,3.17,3.88,8.31,0.0,0.006544984694978736,-0.002181661564992912,,,,0.9629817807464118,0.2082626366477323,-0.17115126413087825,-9.441084016248639e-05
360867.733245774,3.21,3.9,8.31,-0.002181661564992912,0.001090830782496456,0.0,,,,0.9629009959406606,0.20817641013558863,-0.17170979205013331,3.992046038151713e-05
360867.749657335,3.19,3.9,8.31,-0.006544984694978736,-0.007635815477475192,0.0,,,,0.9630195119211518,0.20820031773860806,-0.17101468364061406,-0.0001591602652399229
360867.761920404,3.22,3.86,8.33,-0.00545415391248228,-0.009817477042468103,-0.002181661564992912,,,,0.9631039484954369,0.20762751033269677,-0.1712355044079281,-5.810083719180288e-05
360867.778899856,3.24,3.9,8.370000000000001,-0.003272492347489368,-0.008726646259971648,0.001090830782496456,,,,0.9631360935379564,0.20697983005377305,-0.17183768884837566,0.0001548115145804975
360867.791895366,3.2600000000000002,3.88,8.35,0.0,-0.008726646259971648,0.001090830782496456,,,,0.9630840662512141,0.20670953413049398,-0.1724533229899817,0.00031815451306844
360867.808465045,3.27,3.9,8.36,0.001090830782496456,-0.001090830782496456,0.002181661564992912,,,,0.962908212715393,0.20693536929719558,-0.17316272257130183,0.00044534343522182354
360867.82097545,3.25,3.9,8.32,0.001090830782496456,0.003272492347489368,-0.002181661564992912,,,,0.962793605687166,0.2075058396857985,-0.17311755920812202,0.00033171979133133684
360867.833753449,3.22,3.89,8.35,0.002181661564992912,0.006544984694978736,0.001090830782496456,,,,0.9629307388146922,0.20735011055454142,-0.1725405874501704,0.0002637824115511443
360867.849118382,3.18,3.9,8.35,0.001090830782496456,0.007635815477475192,-0.001090830782496456,,,,0.9630567857294738,0.20739914996497397,-0.1717766220613506,0.00011030599564470487
360867.861940414,3.21,3.89,8.31,0.0,0.007635815477475192,0.0,,,,0.9630384415069989,0.20786009721547336,-0.1713217374063368,-4.957235917171125e-05
360867.879270246,3.21,3.89,8.34,0.001090830782496456,0.002181661564992912,0.001090830782496456,,,,0.9632432466808762,0.2072089860829488,-0.17095871944870603,7.3905173912810505e-06
360867.89208895,3.19,3.91,8.36,0.001090830782496456,-0.006544984694978736,0.0,,,,0.9632846006885625,0.2074481793487308,-0.17043475134726271,-0.00016277091403677418
360867.908597923,3.24,3.89,8.35,-0.001090830782496456,-0.011999138607461015,-0.001090830782496456,,,,0.963190209433556,0.2071977865096932,-0.1712708312226462,9.440866789842445e-06
360867.92098986,3.23,3.87,8.35,-0.004363323129985824,-0.009817477042468103,-0.001090830782496456,,,,0.9632573041510497,0.206641693368872,-0.1715650295515841,0.00013113451606177262
360867.933736818,3.2600000000000002,3.89,8.39,-0.004363323129985824,-0.007635815477475192,-0.001090830782496456,,,,0.9632398412652917,0.20626603749055653,-0.17211406561363232,0.0002799912610743995
360867.949330719,3.25,3.87,8.31,0.0,-0.002181661564992912,-0.001090830782496456,,,,0.9630734933255009,0.20648561273840668,-0.17278021350820424,0.0003687898055743228
360867.962893928,3.25,3.87,8.32,0.0,0.001090830782496456,-0.002181661564992912,,,,0.9629596969561222,0.20650750460022405,-0.17338695892174588,0.00048482763011580834
360867.979898245,3.23,3.89,8.38,0.001090830782496456,0.009817477042468103,-0.001090830782496456,,,,0.9631259192241169,0.20644121619010697,-0.17254091990596299,0.00034486903797159834
360867.992804344,3.21,3.9,8.33,0.007635815477475192,0.006544984694978736,-0.001090830782496456,,,,0.9631114640672841,0.20691859756296954,-0.17204932020001978,0.00018216327176115123
360868.009344357,3.19,3.9,8.290000000000001,0.002181661564992912,0.00545415391248228,0.0,,,,0.9630566200184332,0.2075833584636438,-0.17155493465831484,-1.794455156736155e-05
360868.021764616,3.2,3.93,8.34,-0.002181661564992912,0.003272492347489368,0.0,,,,0.9630322230444701,0.20802722044242322,-0.17115367549727092,-0.0001797131053314787
360868.034583032,3.23,3.92,8.36,-0.004363323129985824,-0.009817477042468103,0.002181661564992912,,,,0.962914830233449,0.2080408795401605,-0.17179644268679808,-6.66093547650155e-05
360868.049676244,3.22,3.87,8.34,-0.006544984694978736,-0.008726646259971648,-0.002181661564992912,,,,0.963073421657098,0.20734036163140343,-0.17175435610645803,-9.731621313366574e-06
360868.062796878,3.22,3.87,8.36,-0.007635815477475192,-0.007635815477475192,0.001090830782496456,,,,0.9632245767746415,0.20675752666772207,-0.17160926222556144,3.1336203603599285e-05
360868.079654118,3.27,3.86,8.34,-0.001090830782496456,-0.00545415391248228,0.003272492347489368,,,,0.9631699482526971,0.2063736084968438,-0.17237608124959053,0.00026666818831389244
360868.092378547,3.24,3.87,8.36,0.00545415391248228,-0.006544984694978736,-0.003272492347489368,,,,0.963300973601362,0.20589744590376696,-0.17221321086772862,0.00029331143957140893
360868.109394321,3.23,3.92,8.370000000000001,0.002181661564992912,0.00545415391248228,-0.001090830782496456,,,,0.963208192331353,0.20664511239614897,-0.17183645267222536,9.634093860352754e-05
360868.122474345,3.2600000000000002,3.92,8.33,0.002181661564992912,0.00545415391248228,0.001090830782496456,,,,0.963055153052944,0.20708961770259415,-0.17215879251276392,0.00011215396268612822
360868.134744711,3.24,3.92,8.34,0.001090830782496456,0.008726646259971648,-0.003272492347489368,,,,0.9629375848209576,0.2076403063282772,-0.17215316018242827,1.9138538141348495e-05
360868.150545819,3.19,3.92,8.35,-0.002181661564992912,0.004363323129985824,0.0,,,,0.9630262694416634,0.2078458639922739,-0.17140732851546495,-0.00017005225575274146
360868.163157348,3.2,3.89,8.34,-0.004363323129985824,0.002181661564992912,0.001090830782496456,,,,0.9631815679198664,0.207493625594304,-0.17096087861656492,-0.00020134500399204852
360868.180231075,3.22,3.9,8.36,-0.002181661564992912,0.0,-0.002181661564992912,,,,0.9632902850542107,0.20674004105551103,-0.17126114993499264,-2.5835775784840084e-05
360868.193033107,3.2,3.86,8.35,-0.003272492347489368,-0.00545415391248228,0.0,,,,0.9634408332206179,0.20627353231896922,-0.1709765776148448,-2.559163510896576e-05
360868.210084849,3.24,3.88,8.33,-0.003272492347489368,-0.006544984694978736,0.0,,,,0.9632606526533241,0.2064735313732979,-0.1717486266498559,7.166603401873596e-05
360868.222531541,3.24,3.89,8.36,-0.003272492347489368,-0.009817477042468103,-0.003272492347489368,,,,0.9631152841492626,0.20670543936429667,-0.1722840729524967,9.477445373745315e-05
360868.235626254,3.25,3.88,8.36,-0.001090830782496456,-0.004363323129985824,-0.001090830782496456,,,,0.9631773736490439,0.20615258370619055,-0.17259896063587118,0.00024064332371033655
360868.250191289,3.2600000000000002,3.87,8.34,0.003272492347489368,0.0,0.0,,,,0.9630706548585534,0.206088919290162,-0.17326888979457783,0.0004036402914081767
360868.263201935,3.24,3.88,8.36,0.002181661564992912,0.001090830782496456,0.001090830782496456,,,,0.963166429684102,0.2061480067695836,-0.17266542999736512,0.0002780617421588276
360868.28013521,3.22,3.89,8.34,0.003272492347489368,0.007635815477475192,-0.001090830782496456,,,,0.9631768979557974,0.20668494266123494,-0.17196393272759145,5.968441871217722e-05
360868.292700401,3.22,3.91,8.33,0.003272492347489368,0.006544984694978736,0.0,,,,0.9630855375128164,0.20726509867267826,-0.1717772473819991,-5.98975614108844e-05
360868.310714704,3.2,3.9,8.32,-0.001090830782496456,0.003272492347489368,-0.002181661564992912,,,,0.9630968141464207,0.20779965571757594,-0.17106644700865384,-0.00031681620425115585
360868.323945038,3.19,3.91,8.34,-0.004363323129985824,0.002181661564992912,-0.001090830782496456,,,,0.9631735718120482,0.20794856839208473,-0.17045183217972637,-0.0004861821449925519
360868.33686989,3.2,3.88,8.35,-0.006544984694978736,-0.00545415391248228,-0.001090830782496456,,,,0.9633032487487462,0.20733295653736877,-0.1704691434709183,-0.00040891059694567406
360868.351197572,3.21,3.85,8.34,-0.003272492347489368,-0.008726646259971648,0.0,,,,0.9633949776333264,0.20667988198364243,-0.17074387700853183,-0.0002681756990537454
360868.364028725,3.23,3.85,8.36,-0.007635815477475192,-0.00545415391248228,0.0,,,,0.9634601584327541,0.20610232428335332,-0.1710740749330561,-0.00012618847416851926
360868.380765641,3.2600000000000002,3.86,8.370000000000001,0.001090830782496456,-0.008726646259971648,0.001090830782496456,,,,0.9634086254263742,0.20570527451048995,-0.17184048562498408,8.940244953726175e-05
360868.394070665,3.27,3.91,8.35,0.007635815477475192,0.002181661564992912,-0.001090830782496456,,,,0.9632422074167628,0.20617554788908019,-0.17220941626713157,0.0001012544002424466
360868.411150792,3.24,3.92,8.33,0.007635815477475192,0.003272492347489368,0.0,,,,0.9630574317026305,0.20698838669799915,-0.17226778865711848,2.383121757860804e-06
360868.424118429,3.25,3.91,8.31,0.006544984694978736,0.00545415391248228,-0.002181661564992912,,,,0.9629000655394345,0.2074871592093208,-0.17254721801809536,-1.0080404542342498e-05
360868.437126228,3.24,3.93,8.32,0.0,0.007635815477475192,-0.002181661564992912,,,,0.9627805322259287,0.20806880059600508,-0.1725137910567909,-0.00011349233958843191
360868.451437654,3.19,3.91,8.34,-0.008726646259971648,0.007635815477475192,-0.002181661564992912,,,,0.9629181810490742,0.2080197621692357,-0.17180303176564699,-0.00027097662075009843
360868.464710101,3.18,3.88,8.36,-0.00545415391248228,-0.001090830782496456,-0.001090830782496456,,,,0.9630776661025228,0.20767014325075925,-0.17133128770852632,-0.0003324287368146004
360868.481001498,3.17,3.87,8.36,-0.002181661564992912,-0.00545415391248228,0.0,,,,0.9632626725710389,0.2072490908992267,-0.17080011884987492,-0.0003966782225784308
360868.493895181,3.21,3.88,8.34,-0.002181661564992912,-0.009817477042468103,-0.001090830782496456,,,,0.9633291122034511,0.20668492615212816,-0.171109004205774,-0.00026751169803052255
360868.511140722,3.24,3.89,8.33,0.004363323129985824,-0.01090830782496456,-0.001090830782496456,,,,0.9631238963232359,0.20697258791351314,-0.17191473400445656,-0.00018004362972811984
360868.52403498,3.24,3.89,8.35,0.006544984694978736,-0.011999138607461015,0.002181661564992912,,,,0.9630586867129386,0.20674813161983346,-0.17254905372969695,-8.685862807739948e-06
360868.536866837,3.29,3.94,8.38,0.006544984694978736,-0.007635815477475192,0.002181661564992912,,,,0.9628880825676386,0.20719543696433043,-0.17296413299357558,6.939549119856809e-06
360868.551527459,3.29,3.93,8.31,0.002181661564992912,-0.002181661564992912,0.002181661564992912,,,,0.9627072429132244,0.20763833715973992,-0.17343899090150222,4.265002666433094e-05
360868.564317361,3.27,3.91,8.32,0.002181661564992912,0.003272492347489368,-0.001090830782496456,,,,0.9625560799857965,0.2080094055377629,-0.17383289519973422,6.809318492002477e-05
360868.581040229,3.24,3.87,8.38,-0.006544984694978736,0.007635815477475192,-0.002181661564992912,,,,0.9627789337709681,0.2073851480489929,-0.17334393738260065,6.654496259074959e-05
360868.593809139,3.21,3.86,8.370000000000001,-0.003272492347489368,0.014180800172453928,-0.003272492347489368,,,,0.9629498048851907,0.20702002804530822,-0.17283049539638373,3.347736302774771e-05
360868.611004823,3.17,3.85,8.39,0.001090830782496456,0.00545415391248228,-0.003272492347489368,,,,0.9631519242992435,0.2066553846941379,-0.17213924593947458,-5.1990109807663364e-05
360868.623841031,3.19,3.88,8.33,0.002181661564992912,0.00545415391248228,0.0,,,,0.9632417401249248,0.20675569156495724,-0.17151501398396482,-0.0001845662033482691
360868.636644343,3.18,3.88,8.32,0.00545415391248228,-0.004363323129985824,0.0,,,,0.9632998419836997,0.20694474347118,-0.17095956828043482,-0.00033704182847029795
360868.651689042,3.21,3.92,8.31,0.002181661564992912,-0.007635815477475192,0.002181661564992912,,,,0.9631233699014127,0.2076010032243288,-0.17115789802843157,-0.0004144303171518013
360868.664490817,3.24,3.94,8.32,-0.003272492347489368,-0.007635815477475192,0.0,,,,0.9629667267625022,0.20803111271357808,-0.1715166022995765,-0.00044093885295558766
360868.681160467,3.2600000000000002,3.89,8.36,-0.00545415391248228,-0.016362461737446838,0.001090830782496456,,,,0.9629720126780468,0.20742361698633408,-0.1722216189380347,-0.0002447150601767406
360868.693982851,3.25,3.87,8.38,-0.006544984694978736,-0.009817477042468103,0.002181661564992912,,,,0.9630887234306899,0.20680477089670865,-0.17231331125479368,-0.00014247600737787486
360868.711207463,3.2600000000000002,3.86,8.36,-0.001090830782496456,0.003272492347489368,-0.002181661564992912,,,,0.9631834684071238,0.20607658610814455,-0.1726558543083717,5.3087495430293824e-05
360868.724121754,3.27,3.87,8.38,0.003272492347489368,0.004363323129985824,-0.002181661564992912,,,,0.9632301216428985,0.20559112642060234,-0.17297391555102634,0.00021455969189323857
360868.736966923,3.24,3.91,8.31,0.006544984694978736,0.015271630954950384,0.0,,,,0.9631185915857527,0.20620857033467707,-0.1728600186631345,0.0001342020321754268
360868.752073288,3.21,3.92,8.3,0.004363323129985824,0.014180800172453928,-0.001090830782496456,,,,0.9630387811732938,0.20689508188728803,-0.1724840009792429,-2.1290881783673745e-05
360868.764911097,3.17,3.94,8.3,-0.002181661564992912,0.013089969389957472,0.0,,,,0.9630245975314373,0.207355126454683,-0.1720100149824474,-0.00017557936577502803
360868.781666861,3.18,3.87,8.32,-0.006544984694978736,0.006544984694978736,-0.002181661564992912,,,,0.9632198524463709,0.20707633697925582,-0.171250738756306,-0.00030164857808042094
360868.794548191,3.15,3.87,8.36,-0.007635815477475192,-0.004363323129985824,-0.003272492347489368,,,,0.9633587353236992,0.20685817670099355,-0.17073214124320676,-0.0004216087915536424
360868.811477882,3.21,3.86,8.36,0.0,-0.011999138607461015,-0.001090830782496456,,,,0.9634964439746954,0.2060980438912012,-0.17087452919054216,-0.0003066369970924915
360868.82501677,3.25,3.88,8.33,0.002181661564992912,-0.015271630954950384,0.0,,,,0.9633392005586832,0.20626825612092736,-0.17155447761468856,-0.00022889766299342618
360868.838212159,3.27,3.91,8.370000000000001,0.00545415391248228,-0.009817477042468103,0.0,,,,0.9631726801861924,0.2065722713427994,-0.17212278753149793,-0.00017569180545594379
360868.852351259,3.3000000000000003,3.92,8.34,0.002181661564992912,-0.00545415391248228,0.002181661564992912,,,,0.9630047067930433,0.2068654843886882,-0.17270957192499006,-9.913911816416147e-05
360868.865135306,3.27,3.91,8.33,0.002181661564992912,0.001090830782496456,-0.001090830782496456,,,,0.9628512534296448,0.20724580489693636,-0.17310873377630911,-8.007462668944924e-05
360868.881661015,3.22,3.92,8.370000000000001,-0.003272492347489368,0.009817477042468103,-0.002181661564992912,,,,0.9629633144068409,0.20741941430103145,-0.17227525044300412,-0.00028242239459830027
360868.894442469,3.2,3.88,8.33,-0.007635815477475192,0.011999138607461015,0.001090830782496456,,,,0.9631226501911849,0.20717567747550872,-0.17167667058906624,-0.000346593025949237
360868.911755789,3.18,3.86,8.33,-0.003272492347489368,0.01090830782496456,-0.001090830782496456,,,,0.9633437171130492,0.20674225161532142,-0.17095719222433267,-0.00040314093478426927
360868.924745698,3.16,3.87,8.33,-0.001090830782496456,0.004363323129985824,0.0,,,,0.9634649311106669,0.20668327149779087,-0.1703440241513279,-0.0005150134173143779
360868.937704343,3.18,3.87,8.35,0.003272492347489368,-0.006544984694978736,0.001090830782496456,,,,0.9636038499540968,0.20636906981242606,-0.1699385897247078,-0.0005505458875070984
360868.952430759,3.17,3.89,8.33,0.003272492347489368,-0.009817477042468103,-0.001090830782496456,,,,0.963514748693307,0.2070040923163139,-0.16967048726409473,-0.000748709781603217
360868.965321178,3.25,3.9,8.33,0.002181661564992912,-0.015271630954950384,0.001090830782496456,,,,0.9633731026645322,0.20711694327373337,-0.17033616049969938,-0.0006552081185130695
360868.982123952,3.2600000000000002,3.9,8.34,0.001090830782496456,-0.011999138607461015,0.001090830782496456,,,,0.9632062603868747,0.20718595081555152,-0.17119409511203337,-0.0005133565621913685
360868.995065156,3.2800000000000002,3.92,8.35,-0.002181661564992912,-0.007635815477475192,0.0,,,,0.9630690461129792,0.2073277419069902,-0.1717935702112539,-0.0004348434845912878
360869.011932636,3.27,3.9,8.32,-0.001090830782496456,0.00545415391248228,0.0,,,,0.9629193433627048,0.20744021707463514,-0.17249583103070093,-0.0002877411920427788
360869.024923314,3.25,3.9,8.33,0.004363323129985824,0.006544984694978736,-0.001090830782496456,,,,0.962789435809695,0.20761448357358853,-0.17301067475093804,-0.00018688484839513798
360869.037831493,3.24,3.94,8.3,-0.002181661564992912,0.009817477042468103,-0.001090830782496456,,,,0.9626812545604488,0.2081806859547548,-0.17293212486159265,-0.0002903518257086796
360869.052857503,3.19,3.88,8.33,-0.00545415391248228,0.007635815477475192,-0.002181661564992912,,,,0.9628670423981043,0.20785584614745647,-0.17228715638336145,-0.0003763391919664989
360869.065842677,3.2,3.87,8.34,-0.008726646259971648,0.004363323129985824,-0.003272492347489368,,,,0.9630385848815511,0.20740958409030955,-0.17186557809403966,-0.000414153625830397
360869.082227997,3.2,3.8200000000000003,8.36,-0.007635815477475192,-0.001090830782496456,-0.001090830782496456,,,,0.963235740205428,0.20668057991533442,-0.17163890189835643,-0.0003661036586071874
360869.095105871,3.19,3.83,8.370000000000001,-0.00545415391248228,-0.004363323129985824,-0.001090830782496456,,,,0.9633905567601425,0.20617976086486636,-0.17137213543425497,-0.0003640766300628351
360869.112217359,3.22,3.87,8.36,0.003272492347489368,-0.013089969389957472,0.002181661564992912,,,,0.9635473764127662,0.20546308357360613,-0.17135141236548326,-0.00026110697936946394
360869.125093953,3.27,3.9,8.36,0.009817477042468103,-0.013089969389957472,0.001090830782496456,,,,0.9633715759389319,0.20583272348707307,-0.17189546038068249,-0.00021752091050285816
360869.137899633,3.2600000000000002,3.92,8.31,0.013089969389957472,-0.00545415391248228,0.004363323129985824,,,,0.9631966096251277,0.206372045852252,-0.17222900047681167,-0.0002032047583544768
360869.152867817,3.29,3.95,8.3,0.007635815477475192,-0.001090830782496456,0.003272492347489368,,,,0.9630046443221608,0.20692995137570555,-0.1726326110909877,-0.00017839704167980897
360869.16595757,3.24,3.98,8.34,0.001090830782496456,0.004363323129985824,-0.002181661564992912,,,,0.9628935555226608,0.20752876154792216,-0.17253324478444948,-0.0003054627041620759
360869.182379596,3.2,3.91,8.35,-0.007635815477475192,0.017453292519943295,-0.001090830782496456,,,,0.9630441700674864,0.20757203092188029,-0.17163785014560964,-0.00047631437674319977
360869.195191067,3.19,3.9,8.31,-0.008726646259971648,0.015271630954950384,-0.003272492347489368,,,,0.9630979008943036,0.20783862510403311,-0.1710120141926628,-0.0006559036666953733
360869.212304988,3.16,3.84,8.36,-0.007635815477475192,0.008726646259971648,-0.002181661564992912,,,,0.9633282323671374,0.20719318269953524,-0.17049711321054817,-0.0006604196492612545
360869.225263569,3.18,3.85,8.33,-0.004363323129985824,-0.001090830782496456,-0.001090830782496456,,,,0.9634785246151389,0.20663182310674508,-0.17032921848845706,-0.0006161283385696794
360869.238182052,3.2,3.87,8.34,0.00545415391248228,-0.014180800172453928,0.001090830782496456,,,,0.9634879653284669,0.20618746572751664,-0.1708141219321814,-0.00045320261788245504
360869.252999415,3.24,3.92,8.34,0.003272492347489368,-0.016362461737446838,0.001090830782496456,,,,0.9632860137072066,0.2067224746874098,-0.1713057104936889,-0.00047729178205616773
360869.265827175,3.2600000000000002,3.89,8.35,0.004363323129985824,-0.017453292519943295,0.001090830782496456,,,,0.9631579932882922,0.2067407032574675,-0.17200241548664966,-0.00036145295115391887
360869.282490649,3.2800000000000002,3.92,8.36,-0.001090830782496456,-0.00545415391248228,-0.002181661564992912,,,,0.9629642233647825,0.207080542567725,-0.17267731184189808,-0.0003152528731428643
360869.295281544,3.2800000000000002,3.9,8.36,-0.003272492347489368,-0.002181661564992912,0.001090830782496456,,,,0.9628810301448792,0.2069642413171269,-0.17327981749319932,-0.00017161784835289414
360869.312517389,3.25,3.89,8.33,-0.003272492347489368,0.01090830782496456,-0.002181661564992912,,,,0.9628876797493234,0.20751264250998622,-0.1725852068342623,-0.0004071455048036867
360869.325843502,3.21,3.88,8.34,0.0,0.009817477042468103,-0.003272492347489368,,,,0.9630518457344159,0.20721224520382997,-0.1720291000478989,-0.00046540502011728496
360869.339179631,3.19,3.88,8.32,-0.002181661564992912,0.013089969389957472,0.0,,,,0.9631886683325808,0.2071433468329025,-0.17134438701292673,-0.0005692958263847629
360869.353232649,3.17,3.89,8.290000000000001,-0.006544984694978736,0.007635815477475192,-0.001090830782496456,,,,0.9632091012554915,0.2075259370060661,-0.17076484296685152,-0.0007623220113790825
360869.366045048,3.19,3.88,8.35,-0.001090830782496456,0.004363323129985824,-0.004363323129985824,,,,0.9633677435236229,0.20707599956372963,-0.1704157352941302,-0.0007735031005272589
360869.382774796,3.19,3.89,8.38,-0.001090830782496456,-0.006544984694978736,0.0,,,,0.963556173402001,0.20661459009204886,-0.16990947146370103,-0.0008266600955312103
360869.395545466,3.23,3.92,8.33,-0.001090830782496456,-0.00545415391248228,0.001090830782496456,,,,0.9634012568249744,0.20696982229746863,-0.1703551123520997,-0.0008041776654280428
360869.412585017,3.2600000000000002,3.9,8.3,0.00545415391248228,-0.01090830782496456,0.002181661564992912,,,,0.9632001389816596,0.20723589098356127,-0.17116749600762876,-0.0006826891238622713
360869.425432169,3.25,3.9,8.35,0.003272492347489368,-0.008726646259971648,0.0,,,,0.9630864884969786,0.20723165997500653,-0.17181135547472962,-0.0005593822471877776
360869.438277658,3.2600000000000002,3.92,8.36,-0.001090830782496456,0.0,0.0,,,,0.9629444746493981,0.20747872565492376,-0.17230864274405214,-0.0004987770104836899
360869.453228434,3.27,3.89,8.32,-0.001090830782496456,0.0,-0.001090830782496456,,,,0.9628417652960225,0.20738480991643266,-0.17299467384975334,-0.00034414703509916435
360869.466042722,3.24,3.88,8.33,-0.004363323129985824,0.006544984694978736,-0.003272492347489368,,,,0.9630029172967722,0.20685277107598596,-0.17273451543523954,-0.0003155209102939906
360869.482865369,3.22,3.89,8.36,-0.007635815477475192,0.007635815477475192,-0.004363323129985824,,,,0.9631855368123285,0.2066814838626209,-0.1719190145187438,-0.000488211834865945
360869.49654535,3.2,3.83,8.33,0.003272492347489368,0.003272492347489368,-0.003272492347489368,,,,0.9633423418165101,0.20616326460101783,-0.17166256113931708,-0.0004537572295144249
360869.513318619,3.21,3.9,8.370000000000001,0.006544984694978736,0.001090830782496456,-0.001090830782496456,,,,0.9633515027270498,0.20667868799895653,-0.17098931608292187,-0.0006752081601899947
360869.526191981,3.22,3.9,8.31,0.003272492347489368,-0.003272492347489368,0.0,,,,0.9631901271967008,0.20713803128914923,-0.17134219897880387,-0.0006824320968976904
360869.543421585,3.2,3.94,8.32,0.003272492347489368,-0.003272492347489368,0.0,,,,0.9630414623660893,0.20793789296475174,-0.1712081849924628,-0.0008554675622968059
360869.556268002,3.23,3.91,8.31,-0.001090830782496456,-0.007635815477475192,0.0,,,,0.9628949695156462,0.20815129492238948,-0.17177218980881653,-0.0007942996155305258
360869.572828944,3.24,3.88,8.35,-0.009817477042468103,-0.007635815477475192,-0.001090830782496456,,,,0.9630158284456526,0.20734441780003715,-0.17207087626768916,-0.0006481595225864415
360869.585614175,3.23,3.87,8.35,-0.00545415391248228,-0.008726646259971648,0.0,,,,0.9631423294557213,0.2067448310352524,-0.1720845703994596,-0.0005733072869462208
360869.602964264,3.25,3.86,8.370000000000001,0.003272492347489368,-0.003272492347489368,0.002181661564992912,,,,0.9632566939576764,0.20599818195389968,-0.17234022595426893,-0.00037026402328478055
360869.615925404,3.24,3.89,8.36,0.007635815477475192,0.003272492347489368,-0.002181661564992912,,,,0.963153194427587,0.20662665432411187,-0.1721658880780285,-0.0005067238525404079
360869.633082974,3.23,3.94,8.31,0.00545415391248228,0.009817477042468103,0.0,,,,0.9629854729195277,0.20743187922314393,-0.17213549013413917,-0.0006061882449454301
360869.645899726,3.24,3.94,8.32,0.001090830782496456,0.008726646259971648,0.0,,,,0.9628525646657075,0.20798121819201096,-0.17221589411515079,-0.0006613699085883203
360869.663113394,3.2,3.92,8.27,-0.00545415391248228,0.0,-0.001090830782496456,,,,0.9627356003568069,0.20870212059909982,-0.17199664386991212,-0.0008620675982867671
360869.676020133,3.21,3.9,8.31,-0.01090830782496456,0.0,-0.001090830782496456,,,,0.962904441838625,0.20817964487905777,-0.17168436047678975,-0.000867013927883954
360869.688874006,3.21,3.88,8.370000000000001,-0.006544984694978736,-0.009817477042468103,0.0,,,,0.9630521293890957,0.2076370299715707,-0.171513091314858,-0.0008481576120390791
360869.703674313,3.2,3.83,8.39,0.001090830782496456,-0.01090830782496456,-0.001090830782496456,,,,0.9632041054121492,0.20703884257284375,-0.17138295271688994,-0.0008077755374432572
360869.716671327,3.23,3.86,8.34,0.00545415391248228,-0.007635815477475192,0.0,,,,0.9632511540582618,0.2065343034496235,-0.17172760435252427,-0.000652385889394121
360869.733556536,3.25,3.93,8.38,0.007635815477475192,-0.00545415391248228,0.003272492347489368,,,,0.9630382100009768,0.20728082973523052,-0.17202203715403516,-0.0006945759604739468
360869.746405321,3.2600000000000002,3.94,8.33,0.009817477042468103,-0.003272492347489368,-0.001090830782496456,,,,0.9628680904765712,0.20779121905649525,-0.17235820387053372,-0.0007065292213707553
360869.764105277,3.2800000000000002,3.9,8.290000000000001,-0.002181661564992912,0.008726646259971648,-0.003272492347489368,,,,0.962719040238275,0.2078962614248908,-0.1730631831434024,-0.0005733136326467882
360869.776994384,3.24,3.92,8.370000000000001,-0.008726646259971648,0.017453292519943295,0.002181661564992912,,,,0.9628748576922161,0.2077318245980065,-0.17239221667758717,-0.0006489240059242896
360869.789819776,3.18,3.89,8.36,-0.006544984694978736,0.01090830782496456,0.0,,,,0.9630296885413989,0.20751405331931472,-0.17178827086132353,-0.0007257115966415279
360869.804845338,3.21,3.83,8.28,-0.00545415391248228,0.004363323129985824,-0.002181661564992912,,,,0.9631563802104667,0.20680765549531763,-0.1719303335944003,-0.0005841904820116219
360869.820288387,3.16,3.83,8.3,-0.003272492347489368,-0.013089969389957472,0.001090830782496456,,,,0.9633224823682194,0.20641002595039643,-0.17147672949389361,-0.0006537531388024978
360869.834586564,3.23,3.86,8.38,0.006544984694978736,-0.017453292519943295,0.003272492347489368,,,,0.9634257227978597,0.20580915932327823,-0.17161930133199196,-0.0005310370856848871
360869.848113484,3.27,3.87,8.34,0.01090830782496456,-0.013089969389957472,0.001090830782496456,,,,0.9632801262522701,0.20590453139321857,-0.17232109626036204,-0.0004026198909626636
360869.863845182,3.2800000000000002,3.94,8.38,0.006544984694978736,-0.004363323129985824,0.001090830782496456,,,,0.9630790295213759,0.20654977393847063,-0.1726724861427526,-0.00043163805722585565
360869.876643566,3.2800000000000002,3.97,8.33,0.004363323129985824,0.002181661564992912,0.0,,,,0.9629286874798954,0.20709039049763564,-0.17286321189490342,-0.00047219186856735097
360869.889440733,3.27,3.93,8.32,-0.006544984694978736,0.011999138607461015,-0.006544984694978736,,,,0.962798190216039,0.20751638444082854,-0.17307894904716453,-0.0005220172941803588
360869.904056905,3.19,3.89,8.35,-0.008726646259971648,0.017453292519943295,-0.002181661564992912,,,,0.9629760319805594,0.20732742165387377,-0.17231394960149904,-0.0006362657193010704
360869.916991613,3.2,3.86,8.34,-0.008726646259971648,0.015271630954950384,-0.003272492347489368,,,,0.9631590189585187,0.20687524450511827,-0.17183395181865724,-0.0006560580726793426
360869.933739217,3.17,3.83,8.290000000000001,-0.004363323129985824,-0.002181661564992912,0.0,,,,0.9633619276428308,0.2063493654098496,-0.17132792542693903,-0.0006911817002492126
360869.946570082,3.14,3.87,8.42,-0.007635815477475192,-0.008726646259971648,0.002181661564992912,,,,0.9634959963641913,0.2061212029278879,-0.17084760655871217,-0.0007810421847667284
360869.963514685,3.24,3.84,8.31,0.00545415391248228,-0.016362461737446838,0.001090830782496456,,,,0.9633890347108066,0.205882584697457,-0.17173698172974994,-0.0005815699702424288
360869.976328461,3.27,3.85,8.290000000000001,0.006544984694978736,-0.016362461737446838,-0.002181661564992912,,,,0.9632545843755589,0.20594206698665526,-0.17241877209756995,-0.0004875993228795997
360869.98914166,3.22,3.94,8.47,0.004363323129985824,-0.007635815477475192,0.002181661564992912,,,,0.9633148971507849,0.20610658131178883,-0.1718839427041453,-0.0006295298387767566
360870.004216952,3.3200000000000003,3.91,8.290000000000001,0.01090830782496456,-0.003272492347489368,0.001090830782496456,,,,0.9631276847013743,0.20646221543425444,-0.17250545164705086,-0.0005345201555441003
360870.017192397,3.3000000000000003,3.91,8.290000000000001,0.008726646259971648,0.006544984694978736,-0.00545415391248228,,,,0.9629753871908472,0.20680823926649222,-0.1729407655062523,-0.0004974557698774657
360870.033984387,3.19,3.98,8.38,-0.004363323129985824,0.025089107997418487,0.0,,,,0.9630028766647192,0.20733370253436392,-0.17215610630045014,-0.0006858515406024586
360870.04688303,3.23,3.94,8.32,-0.001090830782496456,0.02181661564992912,-0.001090830782496456,,,,0.9629015281819947,0.20790269476961323,-0.1720364307521743,-0.0007635616312447727
360870.06360817,3.12,3.89,8.290000000000001,-0.009817477042468103,0.008726646259971648,-0.004363323129985824,,,,0.9630509915545323,0.20790919100190602,-0.17118878259608172,-0.0009780981733266253
360870.076647649,3.11,3.88,8.39,-0.019634954084936207,0.004363323129985824,0.00545415391248228,,,,0.9632199773318351,0.20758613736716158,-0.17062879256888452,-0.001042107636298722
360870.089515122,3.14,3.83,8.39,-0.007635815477475192,-0.02399827721492203,-0.001090830782496456,,,,0.9633572032675182,0.2071177301292382,-0.1704228707910824,-0.001090820802777409
360870.106882204,3.23,3.7800000000000002,8.35,0.002181661564992912,-0.02945243112740431,-0.003272492347489368,,,,0.9634259172458138,0.20637813664412358,-0.17093160907866026,-0.0009755573492947841
360870.124036958,3.31,3.86,8.42,0.006544984694978736,-0.02181661564992912,0.006544984694978736,,,,0.963366652102041,0.20593965960731542,-0.17179356784827637,-0.0007212936210697506
360870.136885071,3.34,3.86,8.39,0.017453292519943295,-0.013089969389957472,0.004363323129985824,,,,0.9632722263812488,0.20583126953268463,-0.1724523789350805,-0.0005323201171369377
360870.153866059,3.3200000000000003,3.96,8.35,0.016362461737446838,0.011999138607461015,0.001090830782496456,,,,0.9630585730435042,0.20649922809770388,-0.172846849228873,-0.00046946151420906146
360870.167077864,3.2800000000000002,3.98,8.34,0.004363323129985824,0.026179938779914945,0.003272492347489368,,,,0.9629353296199284,0.20707560231462036,-0.1728439245739985,-0.00047289920154069514
360870.18411863,3.18,3.94,8.3,-0.00545415391248228,0.026179938779914945,-0.007635815477475192,,,,0.9629430560997927,0.20766688841070324,-0.17208896474687946,-0.0007227581582976384
360870.197030585,3.14,3.9,8.290000000000001,-0.007635815477475192,0.020725784867432664,-0.008726646259971648,,,,0.963041407059908,0.20780825040944978,-0.17136551956936202,-0.0009154521060352928
360870.214058327,3.11,3.89,8.39,-0.018544123302439753,0.006544984694978736,-0.003272492347489368,,,,0.9632532734425953,0.2074786898281012,-0.17057124423598166,-0.0010840245055653063
360870.227051341,3.16,3.8200000000000003,8.33,-0.008726646259971648,-0.007635815477475192,-0.001090830782496456,,,,0.9634060766063278,0.20690715597643652,-0.1704025380011416,-0.0010655545572602159
360870.239902782,3.13,3.85,8.38,0.001090830782496456,-0.026179938779914945,-0.002181661564992912,,,,0.9635227297933944,0.20661838040302358,-0.17009246364664227,-0.0011609744754554046
360870.25481202,3.25,3.85,8.36,-0.003272492347489368,-0.025089107997418487,0.01090830782496456,,,,0.9634819408982805,0.20616436745130387,-0.17087406100806599,-0.0009265154600433633
360870.267662117,3.25,3.85,8.4,0.006544984694978736,-0.02181661564992912,0.001090830782496456,,,,0.9635081847550654,0.2056757330854636,-0.1713150839683875,-0.0007827736967450776
360870.284616545,3.33,3.89,8.34,0.003272492347489368,-0.015271630954950384,0.003272492347489368,,,,0.9633202817183476,0.20582032135313005,-0.1721964617349202,-0.0006393075564718345
360870.297550069,3.33,3.93,8.39,0.003272492347489368,-0.006544984694978736,-0.004363323129985824,,,,0.9631676089613249,0.20607106779146084,-0.17274985053529918,-0.0006010050277823835
360870.314379852,3.29,3.92,8.36,0.008726646259971648,0.008726646259971648,-0.003272492347489368,,,,0.9629653506687628,0.20663435772827157,-0.173204060697307,-0.0005735639241582763
360870.3272063,3.29,3.92,8.3,0.006544984694978736,0.018544123302439753,-0.004363323129985824,,,,0.9628242707708922,0.20706349042774144,-0.1734757278971388,-0.0005535132684252733
360870.340040236,3.22,3.94,8.31,0.002181661564992912,0.02399827721492203,-0.002181661564992912,,,,0.962786161014215,0.20761122843066987,-0.17303152270671815,-0.0006914758223500702
360870.352874429,3.16,3.92,8.33,-0.004363323129985824,0.020725784867432664,-0.002181661564992912,,,,0.9628851922600583,0.20774500708229207,-0.17231778522628452,-0.0008363333050414435
360870.366752208,3.14,3.94,8.31,-0.003272492347489368,0.014180800172453928,-0.003272492347489368,,,,0.9629377641318603,0.20805984997017773,-0.1716418053597028,-0.0010256178542760637
360870.384762479,3.12,3.9,8.33,-0.006544984694978736,-0.007635815477475192,0.001090830782496456,,,,0.9630873454781902,0.20798658465343617,-0.17088846604997662,-0.0012156294905021458
360870.397586559,3.16,3.9,8.35,-0.009817477042468103,-0.015271630954950384,0.003272492347489368,,,,0.9632112537681544,0.20778544955982087,-0.170433388304179,-0.0013220123902607137
360870.414472568,3.24,3.86,8.35,-0.004363323129985824,-0.025089107997418487,0.001090830782496456,,,,0.9632229555249614,0.2071309550325146,-0.1711636735414708,-0.0011411734599082375
360870.427297064,3.29,3.86,8.36,-0.004363323129985824,-0.02399827721492203,0.0,,,,0.9631789563126218,0.20677952857155393,-0.17183570514169563,-0.001007530997329513
360870.440264509,3.2800000000000002,3.87,8.42,-0.002181661564992912,-0.009817477042468103,0.0,,,,0.9632338144861308,0.20622772992428984,-0.17219174106190455,-0.0008639159927383258
360870.454810504,3.3000000000000003,3.86,8.36,0.003272492347489368,-0.00545415391248228,-0.002181661564992912,,,,0.9631693521783677,0.20597024633063132,-0.17285997450825677,-0.000697039315528605
360870.46776934,3.2800000000000002,3.86,8.35,0.003272492347489368,0.007635815477475192,0.0,,,,0.9631363272306761,0.20570319390716896,-0.1733618959003091,-0.0005140377846351457
360870.484896829,3.25,3.88,8.370000000000001,0.002181661564992912,0.02399827721492203,0.0,,,,0.9632917565838891,0.20580351118127893,-0.17237598969158185,-0.0006516600572541274
360870.497182779,3.21,3.9,8.31,0.004363323129985824,0.02399827721492203,-0.004363323129985824,,,,0.963226937998061,0.20637666699824708,-0.17205212326583127,-0.0007772472537880042
360870.515721484,3.14,3.9,8.31,-0.002181661564992912,0.016362461737446838,-0.002181661564992912,,,,0.9633096703109865,0.20676914898341342,-0.17111392871344683,-0.001010699887683023
360870.528739171,3.15,3.91,8.31,-0.003272492347489368,0.003272492347489368,-0.001090830782496456,,,,0.9633163184971651,0.20715233416906423,-0.1706111408264728,-0.0011914660155559447
360870.541627669,3.18,3.88,8.32,0.001090830782496456,-0.011999138607461015,-0.001090830782496456,,,,0.9634292287988326,0.2070250789935635,-0.17012649328722182,-0.0013092156385636434
360870.555630765,3.21,3.9,8.35,-0.002181661564992912,-0.016362461737446838,0.001090830782496456,,,,0.9632738663670165,0.20715818254222626,-0.17084333981525318,-0.0012243450946976759
360870.568457085,3.25,3.9,8.33,0.002181661564992912,-0.020725784867432664,0.003272492347489368,,,,0.9631297057666602,0.20724717704764992,-0.17154743532471978,-0.001120227261636797
360870.584961961,3.29,3.92,8.36,0.004363323129985824,-0.01090830782496456,0.0,,,,0.9629540813909998,0.20738140341591044,-0.17236997041827662,-0.000991941361988417
360870.597733176,3.2600000000000002,3.95,8.35,-0.002181661564992912,-0.002181661564992912,-0.001090830782496456,,,,0.9628071112070624,0.20787841195305123,-0.17259180311730263,-0.001049737923080114
360870.614999037,3.25,3.89,8.35,-0.002181661564992912,0.007635815477475192,-0.001090830782496456,,,,0.9629538316609291,0.2070912424192785,-0.17272052937977225,-0.0008684086285028072
360870.627880463,3.23,3.88,8.33,-0.002181661564992912,0.014180800172453928,-0.003272492347489368,,,,0.9631264758265142,0.2066611362919613,-0.1722724683761478,-0.0008734690054764015
360870.640708608,3.2,3.88,8.34,-0.003272492347489368,0.013089969389957472,-0.002181661564992912,,,,0.9632576336388406,0.20660152035704452,-0.17160874805779283,-0.0009902589034371124
360870.655582997,3.16,3.89,8.290000000000001,0.001090830782496456,0.007635815477475192,0.001090830782496456,,,,0.9632687815564098,0.20705573551424916,-0.17099652113752362,-0.0011690288051926815
360870.668391908,3.18,3.87,8.36,0.001090830782496456,0.001090830782496456,-0.003272492347489368,,,,0.963419515886248,0.20670418248730615,-0.17057183172516757,-0.0012114345559458444
360870.685075671,3.21,3.86,8.36,0.001090830782496456,-0.01090830782496456,0.0,,,,0.9635251905828848,0.20596982417221404,-0.17086406572233878,-0.001053417066066311
360870.697871398,3.23,3.88,8.34,-0.002181661564992912,-0.011999138607461015,0.002181661564992912,,,,0.9633798349992273,0.20614658237819591,-0.1714698849897486,-0.000979097673200683
360870.715225935,3.25,3.92,8.36,0.002181661564992912,-0.017453292519943295,0.0,,,,0.9631433630338841,0.20676883514873884,-0.17204786175168302,-0.0010219205874214218
360870.728092224,3.29,3.9,8.35,0.002181661564992912,-0.008726646259971648,0.001090830782496456,,,,0.9630192786402468,0.2068150429769995,-0.17268638534010342,-0.0009051429776680905
360870.740964914,3.2600000000000002,3.91,8.34,-0.001090830782496456,0.003272492347489368,0.003272492347489368,,,,0.9628704913410221,0.20720981019695228,-0.1730426163033245,-0.000874303003636751
360870.75581543,3.25,3.9,8.35,0.002181661564992912,0.006544984694978736,0.001090830782496456,,,,0.9630513574239888,0.2068080572301069,-0.17251588718160965,-0.0008826655445109964
360870.76868396,3.25,3.88,8.290000000000001,0.003272492347489368,0.008726646259971648,-0.001090830782496456,,,,0.962918697074377,0.2070326201305,-0.17298682381431885,-0.0007973789048901647
360870.785446861,3.2,3.9,8.33,-0.002181661564992912,0.018544123302439753,0.0,,,,0.9630371466205696,0.20723762312095093,-0.17207869724421407,-0.0009714663269917332
360870.798324127,3.16,3.91,8.32,-0.001090830782496456,0.009817477042468103,-0.002181661564992912,,,,0.9630999939800458,0.2074670434842168,-0.17144834522067232,-0.0011368309668237796
360870.815453216,3.21,3.89,8.27,0.0,0.001090830782496456,-0.001090830782496456,,,,0.9628974513075835,0.20798770470913464,-0.17195449426299786,-0.001124659033852509
360870.828305969,3.2,3.89,8.32,-0.001090830782496456,-0.002181661564992912,0.0,,,,0.9630444781099639,0.20767997455249002,-0.17150212465321052,-0.0011758363913243162
360870.841060799,3.19,3.88,8.36,-0.004363323129985824,-0.007635815477475192,0.0,,,,0.9631934986332129,0.20727302070094128,-0.17115700511873713,-0.001207757841066761
360870.856063576,3.24,3.89,8.32,-0.001090830782496456,-0.011999138607461015,0.001090830782496456,,,,0.9630587838073728,0.20725833881378303,-0.17193200025702085,-0.0010710794719514592
360870.868819206,3.2600000000000002,3.88,8.32,0.002181661564992912,-0.01090830782496456,-0.004363323129985824,,,,0.9629738339578451,0.20712084732465214,-0.1725729797236746,-0.0009572801779447196
360870.886334324,3.2600000000000002,3.9,8.370000000000001,-0.002181661564992912,-0.004363323129985824,0.003272492347489368,,,,0.9630015880067765,0.2064794647137689,-0.1731868119288288,-0.0007073343415078936
360870.899457455,3.2600000000000002,3.89,8.35,0.002181661564992912,0.0,-0.001090830782496456,,,,0.962850136604277,0.20676850873616087,-0.17368353517113724,-0.0006540998439186974
360870.915686449,3.25,3.9,8.31,0.002181661564992912,0.001090830782496456,-0.001090830782496456,,,,0.9627082030826316,0.20751773769062715,-0.1735760574177861,-0.0008102792556046326
360870.92852333,3.22,3.91,8.36,0.0,0.00545415391248228,0.001090830782496456,,,,0.9628238494381114,0.20749452991876646,-0.172960724262641,-0.0009180792504000863
360870.941315057,3.22,3.89,8.39,0.001090830782496456,0.008726646259971648,0.001090830782496456,,,,0.9629816839053543,0.20717314010559762,-0.17246649487078825,-0.0009352157928162737
360870.95612362,3.19,3.87,8.33,0.003272492347489368,0.00545415391248228,-0.004363323129985824,,,,0.9631447999544294,0.2069461115138556,-0.17182644723748655,-0.001035992171918501
360870.968884242,3.21,3.89,8.31,-0.001090830782496456,0.002181661564992912,-0.002181661564992912,,,,0.9630460592951595,0.20751442640922055,-0.17169353604872403,-0.0011748136881211263
360870.985804556,3.21,3.91,8.35,-0.001090830782496456,-0.008726646259971648,0.003272492347489368,,,,0.963136295003171,0.20767047867942803,-0.17099588761439,-0.001362333141724526
360870.998671038,3.24,3.9,8.32,-0.002181661564992912,-0.01090830782496456,0.001090830782496456,,,,0.9630207567096287,0.20766572672484154,-0.17165200730273414,-0.0012475893553885173
360871.015804479,3.24,3.87,8.36,-0.007635815477475192,-0.00545415391248228,0.0,,,,0.9631439390398155,0.20684795605130807,-0.17194914907298453,-0.0010797691145779914
360871.028696146,3.2600000000000002,3.87,8.370000000000001,-0.006544984694978736,-0.008726646259971648,0.001090830782496456,,,,0.9631823902224179,0.20631376486109945,-0.17237592411065983,-0.000924327466344919
360871.041538498,3.27,3.88,8.36,-0.002181661564992912,0.001090830782496456,-0.001090830782496456,,,,0.9631217155106472,0.20611998133856008,-0.17294656108052237,-0.0007755096652301162
360871.056648671,3.24,3.86,8.35,0.0,0.00545415391248228,-0.001090830782496456,,,,0.9633038032194221,0.205527785038358,-0.17263714959831925,-0.0007258503916414218
360871.069468591,3.22,3.87,8.34,0.003272492347489368,0.007635815477475192,0.0,,,,0.9633405122779195,0.20584534852364167,-0.17205224531993046,-0.0008802134210250429
360871.085923226,3.21,3.91,8.32,0.007635815477475192,0.00545415391248228,0.0,,,,0.9632082789396835,0.20664262266052522,-0.17183590946615349,-0.0010286398653324817
360871.098741194,3.22,3.91,8.3,0.006544984694978736,0.002181661564992912,-0.002181661564992912,,,,0.9630627076513386,0.20723293602590057,-0.1719404356125482,-0.0011036116729514229
360871.115871435,3.21,3.94,8.31,0.001090830782496456,0.002181661564992912,-0.001090830782496456,,,,0.9629191599946673,0.20801419934087953,-0.17179979612074683,-0.0012705276884431948
360871.12902743,3.21,3.93,8.36,-0.003272492347489368,0.0,0.001090830782496456,,,,0.9629852033270034,0.20819251316099155,-0.17121135804813803,-0.001430563620582271
360871.141963514,3.22,3.89,8.3,-0.007635815477475192,-0.004363323129985824,-0.00545415391248228,,,,0.9629416353019911,0.20791088489753504,-0.17179856183430892,-0.001313428610379337
360871.156671274,3.22,3.85,8.36,-0.008726646259971648,-0.002181661564992912,-0.003272492347489368,,,,0.9631025548082472,0.20720488315964938,-0.17174995544033428,-0.0012482479186205282
360871.169484186,3.22,3.85,8.370000000000001,-0.009817477042468103,-0.002181661564992912,-0.002181661564992912,,,,0.9632477938362776,0.20658841594873537,-0.1716784471165195,-0.0011936754152013548
360871.186987975,3.24,3.87,8.36,0.0,-0.004363323129985824,0.0,,,,0.9633070436036474,0.20589520705631298,-0.1721794002881783,-0.0009785556917247435
360871.200035263,3.2600000000000002,3.88,8.32,0.004363323129985824,0.001090830782496456,-0.001090830782496456,,,,0.9631592556170415,0.20615956123585535,-0.17268947594712872,-0.0009102347896284345
360871.216548171,3.23,3.93,8.38,0.002181661564992912,0.002181661564992912,0.002181661564992912,,,,0.9631086572958216,0.2068038498577722,-0.17219950597588884,-0.0011009393732283406
360871.22945619,3.24,3.92,8.370000000000001,0.007635815477475192,0.001090830782496456,0.002181661564992912,,,,0.962995185271225,0.20742850469552285,-0.17208206096571718,-0.001205353894066392
360871.242333136,3.23,3.91,8.290000000000001,0.001090830782496456,0.008726646259971648,-0.004363323129985824,,,,0.9628502740259929,0.20790719899592594,-0.17231485547474368,-0.0012397566120591272
360871.25770831,3.2,3.91,8.34,-0.002181661564992912,0.01090830782496456,0.001090830782496456,,,,0.9629955357436005,0.20787894434727386,-0.1715344701893765,-0.0013668108167365735
360871.271766512,3.16,3.91,8.370000000000001,-0.004363323129985824,0.002181661564992912,-0.002181661564992912,,,,0.9631343979035907,0.20776543562834768,-0.1708900066970527,-0.0015036436187173983
360871.287168279,3.18,3.84,8.35,0.0,-0.001090830782496456,-0.004363323129985824,,,,0.963306699011431,0.20713660377455298,-0.17068236206216908,-0.0014704752030485538
360871.300092011,3.21,3.87,8.3,0.008726646259971648,-0.00545415391248228,-0.004363323129985824,,,,0.9632151994920596,0.20705261216367907,-0.17130058869758935,-0.0013429726462150134
360871.316487187,3.24,3.95,8.290000000000001,0.011999138607461015,-0.011999138607461015,-0.001090830782496456,,,,0.9629844658065764,0.20776211475598816,-0.17173785382312287,-0.001389910633811351
360871.329308515,3.25,3.97,8.31,0.009817477042468103,-0.011999138607461015,0.001090830782496456,,,,0.9628079297649088,0.20831617047203022,-0.17205590822264635,-0.0014240601669116878
360871.342150548,3.29,3.93,8.25,-0.006544984694978736,-0.008726646259971648,0.001090830782496456,,,,0.9626658663861921,0.2085049350871196,-0.1726217069935815,-0.0013667530356401387
360871.357807555,3.25,3.89,8.36,-0.014180800172453928,-0.003272492347489368,-0.001090830782496456,,,,0.962827063343599,0.20769564538131383,-0.17269908288221747,-0.0012616475030313584
360871.371135077,3.24,3.88,8.4,-0.017453292519943295,0.001090830782496456,-0.003272492347489368,,,,0.9630055221739967,0.20705177130979455,-0.17247714044068874,-0.0012507139031052452
360871.387055613,3.24,3.79,8.370000000000001,-0.008726646259971648,0.002181661564992912,-0.004363323129985824,,,,0.9631747915977713,0.20627801545765517,-0.17245969685218954,-0.0011636713849269558
360871.403286944,3.19,3.88,8.39,0.00545415391248228,0.015271630954950384,-0.001090830782496456,,,,0.9633497361600015,0.20614414889943863,-0.17164001858993677,-0.001256874467767837
360871.418044209,3.2,3.88,8.39,0.013089969389957472,0.01090830782496456,-0.002181661564992912,,,,0.9635011367462231,0.20600473322469834,-0.17095569432171945,-0.0013266336102309337
360871.432602204,3.19,3.89,8.31,0.016362461737446838,0.00545415391248228,0.002181661564992912,,,,0.9633525279926872,0.20677249374008116,-0.17086559726153777,-0.0014107852653283772
