timestamp (sec),accel_x (m/s^2),accel_y (m/s^2),accel_z (m/s^2),gyro_x (rad/s),gyro_y (rad/s),gyro_z (rad/s),mag_x (uT),mag_y (uT),mag_z (uT),pose_w,pose_x,pose_y,pose_z
1919733.927345464,-0.421875,-0.23046875,9.6484375,0.0,0.0,0.0,,,,1.0,0.0,0.0,0.0
1919733.955482976,-0.3828125,-0.23046875,9.65234375,0.0,0.0,0.0,,,,1.0,0.0,0.0,0.0
1919733.961334627,-0.3828125,-0.23046875,9.65234375,0.001953125,0.001953125,-0.001953125,,,,0.9999999975597177,-2.8964258864876145e-05,6.331651360201662e-05,-5.714502762809671e-06
1919733.986008824,-0.421875,-0.23046875,9.6484375,0.001953125,0.001953125,-0.001953125,,,,0.9999999331274249,-0.0001408368345792651,0.0003361863410263979,-2.981402300653948e-05
1919734.016113346,-0.421875,-0.23046875,9.6484375,0.0,0.0,0.0,,,,0.9999999331274249,-0.0001408368345792651,0.0003361863410263979,-2.981402300653948e-05
1919734.063826325,-0.421875,-0.23046875,9.6484375,-0.00390625,-0.001953125,0.0,,,,0.9999995790747659,-0.0004975783317980298,0.0007703104779269438,-2.979702077812201e-05
1919734.108365695,-0.3828125,-0.23046875,9.65234375,-0.00390625,-0.001953125,0.0,,,,0.9999989607455438,-0.0008479388424047281,0.0011656010825966095,-2.9692896584073663e-05
1919734.115959388,-0.3828125,-0.23046875,9.65234375,0.0,0.0,0.0,,,,0.9999989607455438,-0.0008479388424047281,0.0011656010825966095,-2.9692896584073663e-05
1919734.162461703,-0.3828125,-0.23046875,9.65234375,0.00390625,0.0,0.0,,,,0.9999981488473648,-0.0010300397891339066,0.001624941894471893,-2.9727362562030527e-05
1919734.168357259,-0.421875,-0.23046875,9.6484375,0.00390625,0.0,0.0,,,,0.999998028716747,-0.001050675316828014,0.001684565141414082,-2.9736897065457458e-05
1919734.20397198,-0.3828125,-0.23046875,9.6875,0.00390625,0.0,0.0,,,,0.9999972179929763,-0.001191645536514215,0.0020354598488611137,-2.984002177350932e-05
1919734.234539749,-0.421875,-0.23046875,9.69140625,0.00390625,0.0,0.0,,,,0.9999964077249764,-0.0012993531358982987,0.0023442104226306555,-2.993435056331355e-05
1919734.266256837,-0.421875,-0.23046875,9.6484375,-0.001953125,0.0,-0.001953125,,,,0.9999953170715439,-0.0015048637725432635,0.0026641170958869097,-6.0828513562480134e-05
1919734.313069338,-0.421875,-0.23046875,9.6484375,0.001953125,0.0,0.0,,,,0.9999936064033612,-0.001716039635548459,0.003136662031596089,-6.09234630782692e-05
1919734.356091602,-0.3828125,-0.23046875,9.65234375,0.001953125,0.0,0.0,,,,0.9999918010318243,-0.0019321381960172462,0.0035582260832251137,-6.114131757611363e-05
1919734.363266144,-0.3828125,-0.23046875,9.65234375,0.0,0.0,0.0,,,,0.9999918010318243,-0.0019321381960172462,0.0035582260832251137,-6.114131757611363e-05
1919734.412699277,-0.3828125,-0.23046875,9.65234375,-0.00390625,0.0,0.0,,,,0.9999891234586994,-0.002326165119298381,0.004042055013714565,-6.0921309347525686e-05
1919734.417183426,-0.421875,-0.23046875,9.6484375,-0.00390625,0.0,0.0,,,,0.9999888613246878,-0.002359387919749042,0.0040873963482879975,-6.0879311692511005e-05
1919734.462803056,-0.421875,-0.23046875,9.6484375,0.0,0.0,-0.001953125,,,,0.9999862476291067,-0.0026082855302986237,0.004548659052343457,-0.00010535690243631766
1919734.484265178,-0.421875,-0.26953125,9.65234375,0.0,0.0,-0.001953125,,,,0.9999849241531659,-0.0027436214164950883,0.004754790504941285,-0.00012639289569742765
1919734.515815732,-0.421875,-0.23046875,9.6484375,-0.001953125,0.0,0.0,,,,0.9999827791344096,-0.0029460597942053347,0.005074075615704198,-0.0001261862025098559
1919734.544376074,-0.421875,-0.19140625,9.6484375,-0.001953125,0.0,0.0,,,,0.9999807308785904,-0.003099758995452294,0.005377131444427189,-0.00012578998303936788
1919734.562693164,-0.421875,-0.19140625,9.6484375,-0.00390625,0.001953125,0.001953125,,,,0.999979201615657,-0.0032158409395787214,0.0055895551232526585,-0.00010759502152247848
1919734.575073896,-0.421875,-0.23046875,9.6484375,-0.00390625,0.001953125,0.001953125,,,,0.9999781270223722,-0.0033071618802991256,0.00572704632526455,-9.538088966475812e-05
1919734.605003532,-0.3828125,-0.23046875,9.65234375,-0.00390625,0.001953125,0.001953125,,,,0.9999754150167162,-0.003544904014758067,0.006049683070015736,-6.597290954816183e-05
1919734.612163962,-0.3828125,-0.23046875,9.65234375,0.0,0.0,0.0,,,,0.9999754150167162,-0.003544904014758067,0.006049683070015736,-6.597290954816183e-05
1919734.636087574,-0.421875,-0.23046875,9.69140625,0.0,0.0,0.0,,,,0.9999754150167162,-0.003544904014758067,0.006049683070015736,-6.597290954816183e-05
1919734.662369312,-0.421875,-0.23046875,9.69140625,0.0,0.0,0.001953125,,,,0.9999732554824006,-0.0036863322191632796,0.006316459224849759,-4.021890759376818e-05
1919734.666648815,-0.421875,-0.23046875,9.6484375,0.0,0.0,0.001953125,,,,0.9999728951475072,-0.0037093652193774347,0.006359896394841003,-3.602539213511435e-05
1919734.696753752,-0.3828125,-0.23046875,9.65234375,0.0,0.0,0.001953125,,,,0.9999702900210877,-0.003889468600772244,0.006655153231909751,-6.678712453000995e-06
1919734.712498564,-0.3828125,-0.23046875,9.65234375,0.0,0.0,-0.001953125,,,,0.9999688793693385,-0.0039838703898766965,0.006809447992745822,-2.2081217097652593e-05
1919734.765050297,-0.3828125,-0.23046875,9.65234375,0.0,0.001953125,0.0,,,,0.9999635577456458,-0.004298593176878538,0.007375959373275877,-2.2376192901337763e-05
1919734.793704594,-0.421875,-0.23046875,9.6484375,0.0,0.001953125,0.0,,,,0.9999604808020447,-0.004452212050881237,0.007695072528620002,-2.237804475394284e-05
1919734.812068405,-0.421875,-0.23046875,9.6484375,0.001953125,0.0,0.001953125,,,,0.9999586660670791,-0.004532743042901639,0.007881648146085576,-4.5117910437851245e-06
1919734.854510777,-0.3828125,-0.23046875,9.65234375,0.001953125,0.0,0.001953125,,,,0.9999543135046604,-0.004747827734110814,0.008296246489957368,3.6461055771449025e-05
1919734.860520065,-0.3828125,-0.23046875,9.65234375,0.001953125,-0.001953125,0.0,,,,0.9999537287865304,-0.0047784842920878265,0.008348954887324499,3.641529736269948e-05
1919734.910952943,-0.3828125,-0.23046875,9.65234375,0.0,0.001953125,0.0,,,,0.9999475550732223,-0.005085084553636317,0.008889753900469937,3.5968827887132125e-05
1919734.945886682,-0.421875,-0.23046875,9.6484375,0.0,0.001953125,0.0,,,,0.9999430509852714,-0.005272652026888731,0.009278611737943128,3.593169802201542e-05
1919734.962043859,-0.421875,-0.23046875,9.6484375,-0.00390625,0.0,0.0,,,,0.9999408842065955,-0.005391140436424696,0.009442583360258718,3.6282383822548935e-05
1919735.00990382,-0.3828125,-0.23046875,9.65234375,0.001953125,0.0,0.0,,,,0.9999350255727093,-0.005637582164451595,0.009907625060450244,3.557957330845714e-05
1919735.06202885,-0.3828125,-0.23046875,9.65234375,0.00390625,0.0,-0.001953125,,,,0.9999286309451298,-0.0058572841285728676,0.010412730731459378,-1.6659824514248405e-05
1919735.072426604,-0.421875,-0.23046875,9.6484375,0.00390625,0.0,-0.001953125,,,,0.9999273169734225,-0.00589313316737807,0.010518128318138996,-2.699050230142069e-05
1919735.111972432,-0.421875,-0.23046875,9.6484375,-0.00390625,0.001953125,0.0,,,,0.9999208413078923,-0.006184082561204863,0.010957533926346694,-2.6291564753986018e-05
1919735.13366893,-0.3828125,-0.23046875,9.6875,-0.00390625,0.001953125,0.0,,,,0.9999171750880188,-0.006362102245880057,0.011187758269194239,-2.6151854843164924e-05
1919735.159456156,-0.3828125,-0.23046875,9.6875,0.0,0.001953125,0.0,,,,0.9999130368236878,-0.006522736132159012,0.011461762506154743,-2.6526085053285314e-05
1919735.194550923,-0.421875,-0.23046875,9.6484375,0.0,0.001953125,0.0,,,,0.9999072376490012,-0.006708990720731712,0.011853473566953644,-2.6552786155802867e-05
1919735.211157268,-0.421875,-0.23046875,9.6484375,0.0,0.0,0.0,,,,0.9999072376490012,-0.006708990720731712,0.011853473566953644,-2.6552786155802867e-05
1919735.225198887,-0.421875,-0.23046875,9.69140625,0.0,0.0,0.0,,,,0.9999072376490012,-0.006708990720731712,0.011853473566953644,-2.6552786155802867e-05
1919735.257427479,-0.421875,-0.23046875,9.6484375,0.0,0.0,0.0,,,,0.9999072376490012,-0.006708990720731712,0.011853473566953644,-2.6552786155802867e-05
1919735.286283703,-0.3828125,-0.23046875,9.6875,0.0,0.0,0.0,,,,0.9999072376490012,-0.006708990720731712,0.011853473566953644,-2.6552786155802867e-05
1919735.32019472,-0.3828125,-0.23046875,9.65234375,0.0,0.0,0.0,,,,0.9999072376490012,-0.006708990720731712,0.011853473566953644,-2.6552786155802867e-05
1919735.352274219,-0.421875,-0.23046875,9.6484375,0.0,0.0,0.0,,,,0.9999072376490012,-0.006708990720731712,0.011853473566953644,-2.6552786155802867e-05
1919735.443421476,-0.3828125,-0.23046875,9.65234375,0.0,0.0,0.0,,,,0.9999072376490012,-0.006708990720731712,0.011853473566953644,-2.6552786155802867e-05
1919735.474706677,-0.3828125,-0.23046875,9.6875,0.0,0.0,0.0,,,,0.9999072376490012,-0.006708990720731712,0.011853473566953644,-2.6552786155802867e-05
1919735.507458998,-0.421875,-0.23046875,9.6484375,0.0,0.0,0.0,,,,0.9999072376490012,-0.006708990720731712,0.011853473566953644,-2.6552786155802867e-05
1919735.5670261,-0.3828125,-0.23046875,9.65234375,0.0,0.0,0.0,,,,0.9999072376490012,-0.006708990720731712,0.011853473566953644,-2.6552786155802867e-05
1919735.631142218,-0.3828125,-0.23046875,9.6875,0.0,0.0,0.0,,,,0.9999072376490012,-0.006708990720731712,0.011853473566953644,-2.6552786155802867e-05
1919735.661473595,-0.421875,-0.23046875,9.6484375,0.0,0.0,0.0,,,,0.9999072376490012,-0.006708990720731712,0.011853473566953644,-2.6552786155802867e-05
1919735.722717937,-0.421875,-0.23046875,9.69140625,0.0,0.0,0.0,,,,0.9999072376490012,-0.006708990720731712,0.011853473566953644,-2.6552786155802867e-05
1919735.753485008,-0.3828125,-0.23046875,9.65234375,0.0,0.0,0.0,,,,0.9999072376490012,-0.006708990720731712,0.011853473566953644,-2.6552786155802867e-05
1919735.783780896,-0.421875,-0.23046875,9.69140625,0.0,0.0,0.0,,,,0.9999072376490012,-0.006708990720731712,0.011853473566953644,-2.6552786155802867e-05
1919735.815464702,-0.421875,-0.23046875,9.6484375,0.0,0.0,0.0,,,,0.9999072376490012,-0.006708990720731712,0.011853473566953644,-2.6552786155802867e-05
1919735.846348674,-0.421875,-0.23046875,9.69140625,0.0,0.0,0.0,,,,0.9999072376490012,-0.006708990720731712,0.011853473566953644,-2.6552786155802867e-05
1919735.880563796,-0.3828125,-0.23046875,9.6875,0.0,0.0,0.0,,,,0.9999072376490012,-0.006708990720731712,0.011853473566953644,-2.6552786155802867e-05
1919735.911230097,-0.3828125,-0.23046875,9.65234375,0.0,0.0,0.0,,,,0.9999072376490012,-0.006708990720731712,0.011853473566953644,-2.6552786155802867e-05
1919735.941265816,-0.421875,-0.23046875,9.6484375,0.0,0.0,0.0,,,,0.9999072376490012,-0.006708990720731712,0.011853473566953644,-2.6552786155802867e-05
1919735.971286047,-0.421875,-0.23046875,9.69140625,0.0,0.0,0.0,,,,0.9999072376490012,-0.006708990720731712,0.011853473566953644,-2.6552786155802867e-05
1919736.003305352,-0.3828125,-0.23046875,9.65234375,0.0,0.0,0.0,,,,0.9999072376490012,-0.006708990720731712,0.011853473566953644,-2.6552786155802867e-05
1919736.032800574,-0.421875,-0.23046875,9.69140625,0.0,0.0,0.0,,,,0.9999072376490012,-0.006708990720731712,0.011853473566953644,-2.6552786155802867e-05
1919736.063458458,-0.421875,-0.23046875,9.6484375,0.0,0.0,0.0,,,,0.9999072376490012,-0.006708990720731712,0.011853473566953644,-2.6552786155802867e-05
1919736.161532665,-0.3828125,-0.23046875,9.65234375,0.0,0.0,0.0,,,,0.9999072376490012,-0.006708990720731712,0.011853473566953644,-2.6552786155802867e-05
1919736.190123632,-0.421875,-0.23046875,9.6484375,0.0,0.0,0.0,,,,0.9999072376490012,-0.006708990720731712,0.011853473566953644,-2.6552786155802867e-05
1919736.251644943,-0.3828125,-0.23046875,9.65234375,0.0,0.0,0.0,,,,0.9999072376490012,-0.006708990720731712,0.011853473566953644,-2.6552786155802867e-05
1919736.281694007,-0.3828125,-0.23046875,9.6875,0.0,0.0,0.0,,,,0.9999072376490012,-0.006708990720731712,0.011853473566953644,-2.6552786155802867e-05
1919736.31226984,-0.421875,-0.23046875,9.6484375,0.0,0.0,0.0,,,,0.9999072376490012,-0.006708990720731712,0.011853473566953644,-2.6552786155802867e-05
1919736.373260541,-0.3828125,-0.23046875,9.6875,0.0,0.0,0.0,,,,0.9999072376490012,-0.006708990720731712,0.011853473566953644,-2.6552786155802867e-05
1919736.411005509,-0.421875,-0.23046875,9.6484375,0.0,0.0,0.0,,,,0.9999072376490012,-0.006708990720731712,0.011853473566953644,-2.6552786155802867e-05
1919736.440742947,-0.421875,-0.23046875,9.69140625,0.0,0.0,0.0,,,,0.9999072376490012,-0.006708990720731712,0.011853473566953644,-2.6552786155802867e-05
1919736.469337498,-0.421875,-0.23046875,9.6484375,0.0,0.0,0.0,,,,0.9999072376490012,-0.006708990720731712,0.011853473566953644,-2.6552786155802867e-05
1919736.500275487,-0.421875,-0.23046875,9.69140625,0.0,0.0,0.0,,,,0.9999072376490012,-0.006708990720731712,0.011853473566953644,-2.6552786155802867e-05
1919736.591402263,-0.3828125,-0.23046875,9.65234375,0.0,0.0,0.0,,,,0.9999072376490012,-0.006708990720731712,0.011853473566953644,-2.6552786155802867e-05
1919736.654299236,-0.421875,-0.23046875,9.6484375,0.0,0.0,0.0,,,,0.9999072376490012,-0.006708990720731712,0.011853473566953644,-2.6552786155802867e-05
1919736.718994348,-0.3828125,-0.23046875,9.65234375,0.0,0.0,0.0,,,,0.9999072376490012,-0.006708990720731712,0.011853473566953644,-2.6552786155802867e-05
1919736.780143679,-0.421875,-0.23046875,9.69140625,0.0,0.0,0.0,,,,0.9999072376490012,-0.006708990720731712,0.011853473566953644,-2.6552786155802867e-05
1919736.80902672,-0.3828125,-0.23046875,9.6875,0.0,0.0,0.0,,,,0.9999072376490012,-0.006708990720731712,0.011853473566953644,-2.6552786155802867e-05
1919736.840648956,-0.3828125,-0.23046875,9.65234375,0.0,0.0,0.0,,,,0.9999072376490012,-0.006708990720731712,0.011853473566953644,-2.6552786155802867e-05
1919736.872316602,-0.3828125,-0.23046875,9.6875,0.0,0.0,0.0,,,,0.9999072376490012,-0.006708990720731712,0.011853473566953644,-2.6552786155802867e-05
1919736.901550854,-0.421875,-0.23046875,9.6484375,0.0,0.0,0.0,,,,0.9999072376490012,-0.006708990720731712,0.011853473566953644,-2.6552786155802867e-05
1919736.932218979,-0.3828125,-0.23046875,9.6875,0.0,0.0,0.0,,,,0.9999072376490012,-0.006708990720731712,0.011853473566953644,-2.6552786155802867e-05
1919736.998174549,-0.421875,-0.23046875,9.69140625,0.0,0.0,0.0,,,,0.9999072376490012,-0.006708990720731712,0.011853473566953644,-2.6552786155802867e-05
1919737.030614637,-0.421875,-0.23046875,9.6484375,0.0,0.0,0.0,,,,0.9999072376490012,-0.006708990720731712,0.011853473566953644,-2.6552786155802867e-05
1919737.05896518,-0.421875,-0.23046875,9.69140625,0.0,0.0,0.0,,,,0.9999072376490012,-0.006708990720731712,0.011853473566953644,-2.6552786155802867e-05
1919737.089286445,-0.3828125,-0.23046875,9.65234375,0.0,0.0,0.0,,,,0.9999072376490012,-0.006708990720731712,0.011853473566953644,-2.6552786155802867e-05
1919737.120078605,-0.421875,-0.23046875,9.69140625,0.0,0.0,0.0,,,,0.9999072376490012,-0.006708990720731712,0.011853473566953644,-2.6552786155802867e-05
1919737.150215416,-0.421875,-0.23046875,9.6484375,0.0,0.0,0.0,,,,0.9999072376490012,-0.006708990720731712,0.011853473566953644,-2.6552786155802867e-05
1919737.181181214,-0.3828125,-0.23046875,9.65234375,0.0,0.0,0.0,,,,0.9999072376490012,-0.006708990720731712,0.011853473566953644,-2.6552786155802867e-05
1919737.247898122,-0.3828125,-0.23046875,9.6875,0.0,0.0,0.0,,,,0.9999072376490012,-0.006708990720731712,0.011853473566953644,-2.6552786155802867e-05
1919737.30230134,-0.3828125,-0.23046875,9.6875,0.001953125,-0.001953125,0.0,,,,0.9998995793172962,-0.006998602201827151,0.01232274719557213,-2.7383730695167162e-05
1919737.308949785,-0.421875,-0.23046875,9.6484375,0.001953125,-0.001953125,0.0,,,,0.9998986211416065,-0.007027240495628351,0.012384045407116987,-2.7376725770007823e-05
1919737.338830651,-0.3828125,-0.23046875,9.65234375,0.001953125,-0.001953125,0.0,,,,0.9998942659949241,-0.007187001253860152,0.012641323794741092,-2.785974596536532e-05
1919737.353099638,-0.3828125,-0.23046875,9.65234375,0.0,0.001953125,0.001953125,,,,0.999891696986156,-0.007277178049550988,0.01279205911973419,-1.4186532849570058e-05
1919737.369567066,-0.3828125,-0.23046875,9.6875,0.0,0.001953125,0.001953125,,,,0.9998886938760041,-0.007381466717295689,0.012965870796963692,1.5863918946602526e-06
1919737.399827913,-0.421875,-0.23046875,9.6484375,0.0,0.001953125,0.001953125,,,,0.9998830600174595,-0.007539629626336705,0.013304860214419862,3.114312190731027e-05
1919737.40696095,-0.421875,-0.23046875,9.6484375,-0.00390625,0.001953125,0.0,,,,0.9998816060291579,-0.00759104251550897,0.013384656018732352,3.1326347172151715e-05
1919737.429895185,-0.421875,-0.23046875,9.69140625,-0.00390625,0.001953125,0.0,,,,0.9998768703517912,-0.007756046784045214,0.013641365567938367,3.1925429284807785e-05
1919737.455270846,-0.421875,-0.23046875,9.69140625,0.0,0.0,0.001953125,,,,0.9998722586495934,-0.007887874095279232,0.013901244044860817,5.691417135629816e-05
1919737.460426057,-0.3828125,-0.23046875,9.65234375,0.0,0.0,0.001953125,,,,0.9998713136456372,-0.007921212182055506,0.013950151194724435,6.186888718028034e-05
1919737.490816412,-0.421875,-0.23046875,9.6484375,0.0,0.0,0.001953125,,,,0.999865657604923,-0.008078965460966276,0.014261438641463627,9.179995290650127e-05
1919737.506288575,-0.421875,-0.23046875,9.6484375,-0.001953125,0.0,0.0,,,,0.9998626090403142,-0.008174618920764787,0.014419783554402666,9.214575602846614e-05
1919737.557257823,-0.3828125,-0.23046875,9.6875,-0.001953125,0.0,0.0,,,,0.9998523535031586,-0.008559235548545178,0.01489973908635185,9.195747951247778e-05
1919737.587251077,-0.421875,-0.23046875,9.69140625,-0.001953125,0.0,0.0,,,,0.9998461347462883,-0.008738901115538216,0.0152095308128238,9.280438513045878e-05
1919737.60568433,-0.421875,-0.23046875,9.69140625,-0.001953125,-0.001953125,0.001953125,,,,0.9998425254454882,-0.008848350506588765,0.015382411082649056,0.0001115050909485241
1919737.618040965,-0.3828125,-0.23046875,9.6875,-0.001953125,-0.001953125,0.001953125,,,,0.9998400847055203,-0.008941373027430012,0.015486819450017746,0.0001236437009705382
1919737.65588488,-0.3828125,-0.23046875,9.6875,0.001953125,0.001953125,0.0,,,,0.9998319984761673,-0.009151813814425865,0.01588093883000914,0.0001221021583594208
1919737.705751339,-0.3828125,-0.23046875,9.6875,0.001953125,0.0,0.0,,,,0.9998218466646697,-0.009434179066493171,0.016347988092271008,0.00012034419878946011
1919737.710373669,-0.421875,-0.23046875,9.69140625,0.001953125,0.0,0.0,,,,0.9998208909273653,-0.00945159017889691,0.016396311167469448,0.00012036776675138109
1919737.739665748,-0.421875,-0.23046875,9.6484375,0.001953125,0.0,0.0,,,,0.9998147718601359,-0.009562551220536399,0.016702247269270738,0.00012050134901829422
1919737.755526147,-0.421875,-0.23046875,9.6484375,0.0,0.0,0.0,,,,0.9998147718601359,-0.009562551220536399,0.016702247269270738,0.00012050134901829422
1919737.807527494,-0.3828125,-0.23046875,9.65234375,0.001953125,0.0,0.0,,,,0.9998037039265596,-0.009873410330521604,0.01717717738915039,0.0001181529483719202
1919737.836151678,-0.421875,-0.23046875,9.69140625,0.001953125,0.0,0.0,,,,0.9997974555014743,-0.009977762014831436,0.017477935424611856,0.00011836911064729728
1919737.856038868,-0.421875,-0.23046875,9.69140625,0.0,0.001953125,0.0,,,,0.9997925131250495,-0.010070820516858743,0.01770579567695519,0.00011862824749534434
1919737.866395308,-0.421875,-0.23046875,9.6484375,0.0,0.001953125,0.0,,,,0.9997899145331285,-0.01011968072781303,0.017824274393965212,0.00011875241297474201
1919737.90439238,-0.421875,-0.23046875,9.6484375,0.0,0.0,0.0,,,,0.9997899145331285,-0.01011968072781303,0.017824274393965212,0.00011875241297474201
1919737.927951468,-0.3828125,-0.23046875,9.6875,0.0,0.0,0.0,,,,0.9997899145331285,-0.01011968072781303,0.017824274393965212,0.00011875241297474201
1919737.954233015,-0.3828125,-0.23046875,9.6875,0.0,0.0,0.001953125,,,,0.9997838424405764,-0.010323759976854332,0.018046271719952784,0.00014300946386804119
1919737.959052951,-0.3828125,-0.23046875,9.65234375,0.0,0.0,0.001953125,,,,0.9997827172425781,-0.010360915625241433,0.018087232634613967,0.00014746550502940756
1919738.004700454,-0.3828125,-0.23046875,9.65234375,0.001953125,0.0,0.001953125,,,,0.9997723853670794,-0.01066825548643605,0.018475121508195257,0.00018885855491053964
1919738.019483442,-0.421875,-0.23046875,9.69140625,0.001953125,0.0,0.001953125,,,,0.9997689529679835,-0.010712707441465102,0.01863429945521411,0.0002036280658627014
1919738.049701727,-0.3828125,-0.23046875,9.65234375,0.001953125,0.0,0.001953125,,,,0.9997620467053784,-0.010932207832346332,0.0188754778742725,0.0002305090042211207
1919738.056911375,-0.3828125,-0.23046875,9.65234375,0.001953125,0.001953125,0.001953125,,,,0.9997602579238954,-0.010985480542000518,0.018939108006920273,0.0002368145047397966
1919738.084295166,-0.3828125,-0.23046875,9.6875,0.001953125,0.001953125,0.001953125,,,,0.9997534580924536,-0.011193622856416523,0.01917440843713264,0.00026057746422881637
1919738.10431164,-0.3828125,-0.23046875,9.6875,-0.001953125,0.0,0.0,,,,0.9997484372331773,-0.011391646646492877,0.01931904446782402,0.00025914735479577397
1919738.117086945,-0.3828125,-0.23046875,9.65234375,-0.001953125,0.0,0.0,,,,0.9997451421592576,-0.011512701933708252,0.01941756025983521,0.0002584118941642588
1919738.146054693,-0.421875,-0.23046875,9.6484375,-0.001953125,0.0,0.0,,,,0.9997377360852632,-0.01159854219118291,0.01974498481419664,0.0002616120012854464
1919738.154729413,-0.421875,-0.23046875,9.6484375,0.0,0.0,0.0,,,,0.9997377360852632,-0.01159854219118291,0.01974498481419664,0.0002616120012854464
1919738.177003402,-0.3828125,-0.23046875,9.65234375,0.0,0.0,0.0,,,,0.9997377360852632,-0.01159854219118291,0.01974498481419664,0.0002616120012854464
1919738.206564834,-0.421875,-0.23046875,9.69140625,0.001953125,0.0,0.0,,,,0.999730821373476,-0.011617934183484264,0.02008080461951297,0.00026398306040843045
1919738.237740655,-0.421875,-0.23046875,9.6484375,0.001953125,0.0,0.0,,,,0.999723296636457,-0.011651642010694394,0.02043278134622655,0.0002661714610758813
1919738.254792231,-0.421875,-0.23046875,9.6484375,-0.001953125,0.0,0.0,,,,0.9997187081224601,-0.011707376499131285,0.02062450412248566,0.0002679462048629783
1919738.268162435,-0.3828125,-0.23046875,9.65234375,-0.001953125,0.0,0.0,,,,0.9997211117688012,-0.011761615382366402,0.020476633645588365,0.0002656348882116105
1919738.329035885,-0.3828125,-0.23046875,9.6875,-0.001953125,0.0,0.0,,,,0.9997328429630087,-0.011941558746103087,0.0197882842052052,0.00025628895361310506
1919738.354037261,-0.3828125,-0.23046875,9.6875,-0.001953125,0.001953125,0.0,,,,0.9997384452182861,-0.01175949197824251,0.01961348615039472,0.00025818978654886237
1919738.364566475,-0.421875,-0.23046875,9.69140625,-0.001953125,0.001953125,0.0,,,,0.9997356627945283,-0.011776918360194625,0.019744400856012537,0.0002595487618467322
1919738.394716566,-0.3828125,-0.23046875,9.65234375,-0.001953125,0.001953125,0.0,,,,0.9997282391191055,-0.012124963868000656,0.019908995262537615,0.00025508165108707926
1919738.40228389,-0.3828125,-0.23046875,9.65234375,0.0,-0.001953125,0.0,,,,0.9997301086673208,-0.012047680693301066,0.01986196264686524,0.0002562298845833683
1919738.455141552,-0.3828125,-0.23046875,9.65234375,-0.001953125,0.0,0.0,,,,0.999740929215523,-0.011545578116558224,0.01961386523641816,0.0002652691552883545
1919738.486147288,-0.421875,-0.23046875,9.6484375,-0.001953125,0.0,0.0,,,,0.9997329238933398,-0.011637723871243828,0.01996426984358531,0.00026869384594531713
1919738.504271699,-0.421875,-0.23046875,9.6484375,0.00390625,0.001953125,0.0,,,,0.9997284723711628,-0.01163528920641584,0.02018734599796756,0.0002695126393954073
1919738.516784979,-0.3828125,-0.23046875,9.6875,0.00390625,0.001953125,0.0,,,,0.9997301956546111,-0.011682039315910268,0.020074737969430514,0.00026598735562921886
1919738.553435127,-0.3828125,-0.23046875,9.6875,0.00390625,-0.001953125,0.0,,,,0.999736241772892,-0.01183282379485003,0.019681602131085177,0.0002563287097341279
1919738.602816578,-0.3828125,-0.23046875,9.6875,-0.001953125,0.0,0.0,,,,0.9997228662971531,-0.012282538745361667,0.020081465987024653,0.00025410309965923387
1919738.608820713,-0.421875,-0.23046875,9.69140625,-0.001953125,0.0,0.0,,,,0.9997216419326846,-0.01227237418910785,0.02014850543630555,0.0002553661350499471
1919738.644058974,-0.421875,-0.23046875,9.6484375,-0.001953125,0.0,0.0,,,,0.9997141026011696,-0.012228362563819718,0.020545347356803818,0.0002625096847342255
1919738.650879649,-0.421875,-0.23046875,9.6484375,0.001953125,0.0,0.0,,,,0.9997128198267228,-0.012204576180569101,0.02062175255097176,0.00026365902520796074
1919738.674809565,-0.3828125,-0.23046875,9.6875,0.001953125,0.0,0.0,,,,0.9997195247672067,-0.01208923116807401,0.020363047121085644,0.00026191781125764756
1919738.706201617,-0.421875,-0.23046875,9.69140625,0.00390625,0.0,0.0,,,,0.9997135701368718,-0.011975288614334858,0.020719540627804553,0.0002660506833461464
1919738.735165525,-0.3828125,-0.23046875,9.6875,0.00390625,0.0,0.0,,,,0.999721395660766,-0.011890171828466361,0.02038839098252218,0.00026150549459461384
1919738.753573113,-0.3828125,-0.23046875,9.6875,0.0,0.0,0.0,,,,0.999721395660766,-0.011890171828466361,0.02038839098252218,0.00026150549459461384
1919738.79999005,-0.3828125,-0.23046875,9.6875,-0.00390625,0.0,0.0,,,,0.9997310331017919,-0.011981236582715785,0.01985561301476262,0.00025701163577458404
1919738.853302352,-0.3828125,-0.23046875,9.6875,-0.001953125,0.0,0.0,,,,0.9997443320900096,-0.01165776572865276,0.01937264819308819,0.0002597192782092947
1919738.857636896,-0.3828125,-0.23046875,9.65234375,-0.001953125,0.0,0.0,,,,0.9997431567252464,-0.011688518529139871,0.01941472717161109,0.0002597777619439006
1919738.903136266,-0.3828125,-0.23046875,9.65234375,0.0,-0.001953125,0.0,,,,0.9997320679260906,-0.011963489132300642,0.01981412661963735,0.00026014285541977906
1919738.924350923,-0.3828125,-0.23046875,9.6875,0.0,-0.001953125,0.0,,,,0.9997379363093901,-0.01179398078825178,0.01961867107629615,0.0002616604829133883
1919738.955650077,-0.3828125,-0.23046875,9.65234375,-0.001953125,0.001953125,-0.001953125,,,,0.9997287116177512,-0.01203661297606211,0.019939155743869542,0.00023061525849453094
1919738.984515357,-0.421875,-0.23046875,9.69140625,-0.001953125,0.001953125,-0.001953125,,,,0.999721500579482,-0.012037598774392803,0.02029715668153408,0.00020718470230120313
1919739.002719899,-0.421875,-0.23046875,9.69140625,-0.001953125,0.0,-0.001953125,,,,0.9997173143413349,-0.012033706447899584,0.020504735399835678,0.0001927211899528566
1919739.015313406,-0.3828125,-0.23046875,9.6875,-0.001953125,0.0,-0.001953125,,,,0.999720393951255,-0.012019447136599715,0.020362577961252272,0.00017951949776878246
1919739.04976636,-0.3828125,-0.23046875,9.6875,-0.001953125,0.001953125,0.0,,,,0.9997280975511396,-0.011972059947513066,0.02000923509910372,0.00017679972083700575
1919739.076758682,-0.421875,-0.23046875,9.69140625,-0.001953125,0.001953125,0.0,,,,0.999721193138056,-0.01198265894565987,0.020345001914168423,0.0001810312859540739
1919739.102037987,-0.421875,-0.23046875,9.69140625,0.00390625,0.001953125,0.0,,,,0.9997155852719204,-0.011912830487097471,0.02065912194340892,0.00018361572559124395
1919739.106635708,-0.3828125,-0.23046875,9.65234375,0.00390625,0.001953125,0.0,,,,0.99971667411928,-0.011905069005035374,0.02061085714170017,0.00018272316538637834
1919739.152299915,-0.3828125,-0.23046875,9.65234375,-0.001953125,0.0,0.001953125,,,,0.9997265830842249,-0.01196660753942235,0.02008756489130072,0.00022162011572377852
1919739.16752503,-0.3828125,-0.23046875,9.6875,-0.001953125,0.0,0.001953125,,,,0.9997302654972977,-0.011943598900910552,0.0199171091121036,0.0002354965251131623
1919739.204803774,-0.421875,-0.23046875,9.6484375,0.001953125,0.0,0.0,,,,0.9997220977682032,-0.01190593232547038,0.02034498597460753,0.0002399064355892072
1919739.233362228,-0.421875,-0.23046875,9.69140625,0.001953125,0.0,0.0,,,,0.9997157633419492,-0.011873144450747773,0.020672729668008274,0.00024334039709859176
1919739.251644341,-0.421875,-0.23046875,9.69140625,-0.001953125,0.0,0.0,,,,0.9997111624806775,-0.01189331487692733,0.02088253054327529,0.00024615214832108856
1919739.264081298,-0.3828125,-0.23046875,9.6875,-0.001953125,0.0,0.0,,,,0.9997139942169964,-0.011905078456409337,0.02073979237031044,0.00024471633103534916
1919739.294607754,-0.3828125,-0.23046875,9.65234375,-0.001953125,0.0,0.0,,,,0.9997207155643043,-0.011945612028315011,0.02038958486958347,0.0002409433763270136
1919739.301366187,-0.3828125,-0.23046875,9.65234375,0.0,0.0,0.0,,,,0.9997207155643043,-0.011945612028315011,0.02038958486958347,0.0002409433763270136
1919739.324198211,-0.421875,-0.23046875,9.6484375,0.0,0.0,0.0,,,,0.9997207155643043,-0.011945612028315011,0.02038958486958347,0.0002409433763270136
1919739.35122247,-0.421875,-0.23046875,9.6484375,-0.00390625,0.0,0.001953125,,,,0.9997137218577861,-0.011996184581637589,0.020700044058010573,0.000272141016583211
1919739.356095336,-0.3828125,-0.23046875,9.65234375,-0.00390625,0.0,0.001953125,,,,0.9997148068091706,-0.012001706139756135,0.020644312538272758,0.00027650688950643106
1919739.386180881,-0.421875,-0.23046875,9.69140625,-0.00390625,0.0,0.001953125,,,,0.9997073760664326,-0.012023569343353493,0.020988060859417453,0.0003119614969903571
1919739.401824153,-0.421875,-0.23046875,9.69140625,0.00390625,-0.001953125,0.0,,,,0.9997047259129925,-0.01196087275316958,0.02114946155631304,0.0003143025439562848
1919739.416398302,-0.3828125,-0.23046875,9.65234375,0.00390625,-0.001953125,0.0,,,,0.9997089276869273,-0.011929159547369799,0.02096801728902458,0.0003119399213023996
1919739.449982524,-0.3828125,-0.23046875,9.65234375,0.001953125,0.001953125,0.0,,,,0.9997166316750093,-0.011898265748291083,0.020615378992460576,0.00030622467909895265
1919739.50091641,-0.3828125,-0.23046875,9.65234375,0.001953125,0.0,0.0,,,,0.9997287825998903,-0.011875028838887103,0.020031382944144506,0.000297705831519848
1919739.512146064,-0.3828125,-0.23046875,9.6875,0.001953125,0.0,0.0,,,,0.9997313976619536,-0.011871305604720052,0.019902691443449774,0.0002958131557118636
1919739.543689321,-0.421875,-0.23046875,9.69140625,0.001953125,0.0,0.0,,,,0.9997244537470259,-0.0118434684981115,0.020264727263916142,0.00029943791377756674
1919739.550452714,-0.421875,-0.23046875,9.69140625,0.0,0.0,0.0,,,,0.9997244537470259,-0.0118434684981115,0.020264727263916142,0.00029943791377756674
1919739.603775864,-0.421875,-0.23046875,9.6484375,-0.001953125,0.0,-0.001953125,,,,0.9997108376414798,-0.01193371793653639,0.020874925069677558,0.00025491511815868274
1919739.634963238,-0.421875,-0.23046875,9.69140625,-0.001953125,0.0,-0.001953125,,,,0.999703192722981,-0.011944811068156237,0.021231936951037346,0.00022978540357066027
1919739.651153409,-0.421875,-0.23046875,9.69140625,0.001953125,-0.001953125,0.001953125,,,,0.9997000385844544,-0.011906894667739204,0.021400868079034522,0.00024811101468586946
1919739.664697283,-0.3828125,-0.23046875,9.6875,0.001953125,-0.001953125,0.001953125,,,,0.9997038076714373,-0.011891825209478445,0.021232384149722137,0.00025939108661850445
1919739.701540525,-0.3828125,-0.23046875,9.6875,-0.001953125,0.0,0.0,,,,0.9997122759611521,-0.011927409874747916,0.020809543291002857,0.0002551357935378293
1919739.726586606,-0.421875,-0.23046875,9.6484375,-0.001953125,0.0,0.0,,,,0.9997059232540138,-0.011954835956151173,0.02109696237954007,0.00025901053619169863
1919739.751494795,-0.421875,-0.23046875,9.6484375,0.0,0.0,0.001953125,,,,0.9996999208581664,-0.011947868596862279,0.02138303935875641,0.00028687967844582976
1919739.761872804,-0.3828125,-0.23046875,9.6875,0.0,0.0,0.001953125,,,,0.9997025062844612,-0.011943534361961768,0.021264136243221255,0.00029567776595470997
1919739.792151508,-0.421875,-0.23046875,9.6484375,0.0,0.0,0.001953125,,,,0.9996950783335432,-0.01194006039663636,0.02161195914273304,0.00032944715601295567
1919739.800874966,-0.421875,-0.23046875,9.6484375,-0.00390625,0.0,0.001953125,,,,0.9996927053842563,-0.011956650399483654,0.021712163193931364,0.00033953228308005877
1919739.822475557,-0.3828125,-0.23046875,9.65234375,-0.00390625,0.0,0.001953125,,,,0.9996975799218213,-0.01199557437914704,0.02146453528926431,0.0003586343321118168
1919739.847627401,-0.3828125,-0.23046875,9.65234375,0.0,0.0,0.0,,,,0.9996975799218213,-0.01199557437914704,0.02146453528926431,0.0003586343321118168
1919739.900481608,-0.3828125,-0.23046875,9.65234375,-0.001953125,0.0,0.001953125,,,,0.9997100378882596,-0.01202411482081764,0.020858982493202154,0.00040454613916560546
1919739.91413147,-0.421875,-0.23046875,9.69140625,-0.001953125,0.0,0.001953125,,,,0.9997069144967419,-0.012013337888621696,0.02101399516135416,0.000420508664090782
1919739.94436854,-0.3828125,-0.23046875,9.6875,-0.001953125,0.0,0.001953125,,,,0.9997141398162994,-0.012009869515847996,0.020668858565266835,0.00044718137025787774
1919739.951511978,-0.3828125,-0.23046875,9.6875,0.001953125,0.001953125,0.001953125,,,,0.999715876834268,-0.0119926676392191,0.02059456663478453,0.0004531594768145695
1919739.999874643,-0.3828125,-0.23046875,9.6875,-0.001953125,0.0,0.0,,,,0.9997272773716099,-0.011976741309723898,0.020043131096723756,0.00044882355970290164
1919740.041898089,-0.3828125,-0.23046875,9.65234375,-0.001953125,0.0,0.0,,,,0.9997371596333827,-0.011938634919847103,0.019567374385703728,0.00044553796313513
1919740.050635083,-0.3828125,-0.23046875,9.65234375,0.0,0.001953125,0.001953125,,,,0.9997350237285434,-0.011938121659202123,0.01967629036126541,0.0004551695928027855
1919740.072094069,-0.421875,-0.23046875,9.6484375,0.0,0.001953125,0.001953125,,,,0.9997297105132006,-0.01193824642245628,0.019943794567710296,0.0004787982768922926
1919740.101231519,-0.421875,-0.23046875,9.69140625,-0.001953125,-0.001953125,0.0,,,,0.9997233264721376,-0.011957758012330705,0.020249651804543058,0.0004838725009055081
1919740.13246699,-0.3828125,-0.23046875,9.65234375,-0.001953125,-0.001953125,0.0,,,,0.9997309480125115,-0.011972524466134083,0.019860991563338218,0.00048089295476559467
1919740.150175515,-0.3828125,-0.23046875,9.65234375,0.0,0.0,0.0,,,,0.9997309480125115,-0.011972524466134083,0.019860991563338218,0.00048089295476559467
1919740.163302704,-0.421875,-0.23046875,9.69140625,0.0,0.0,0.0,,,,0.9997309480125115,-0.011972524466134083,0.019860991563338218,0.00048089295476559467
1919740.193268565,-0.421875,-0.23046875,9.6484375,0.0,0.0,0.0,,,,0.9997309480125115,-0.011972524466134083,0.019860991563338218,0.00048089295476559467
1919740.223623879,-0.3828125,-0.23046875,9.6875,0.0,0.0,0.0,,,,0.9997309480125115,-0.011972524466134083,0.019860991563338218,0.00048089295476559467
1919740.290681022,-0.421875,-0.23046875,9.6484375,0.0,0.0,0.0,,,,0.9997309480125115,-0.011972524466134083,0.019860991563338218,0.00048089295476559467
1919740.320580897,-0.421875,-0.23046875,9.69140625,0.0,0.0,0.0,,,,0.9997309480125115,-0.011972524466134083,0.019860991563338218,0.00048089295476559467
1919740.381418473,-0.3828125,-0.23046875,9.6875,0.0,0.0,0.0,,,,0.9997309480125115,-0.011972524466134083,0.019860991563338218,0.00048089295476559467
1919740.44260374,-0.421875,-0.23046875,9.6484375,0.0,0.0,0.0,,,,0.9997309480125115,-0.011972524466134083,0.019860991563338218,0.00048089295476559467
1919740.472672709,-0.421875,-0.23046875,9.69140625,0.0,0.0,0.0,,,,0.9997309480125115,-0.011972524466134083,0.019860991563338218,0.00048089295476559467
1919740.50313129,-0.3828125,-0.23046875,9.6875,0.0,0.0,0.0,,,,0.9997309480125115,-0.011972524466134083,0.019860991563338218,0.00048089295476559467
1919740.63002476,-0.3828125,-0.23046875,9.65234375,0.0,0.0,0.0,,,,0.9997309480125115,-0.011972524466134083,0.019860991563338218,0.00048089295476559467
1919740.721672449,-0.421875,-0.23046875,9.69140625,0.0,0.0,0.0,,,,0.9997309480125115,-0.011972524466134083,0.019860991563338218,0.00048089295476559467
1919740.78301737,-0.3828125,-0.23046875,9.6875,0.0,0.0,0.0,,,,0.9997309480125115,-0.011972524466134083,0.019860991563338218,0.00048089295476559467
1919740.878076661,-0.421875,-0.23046875,9.69140625,0.0,0.0,0.0,,,,0.9997309480125115,-0.011972524466134083,0.019860991563338218,0.00048089295476559467
1919740.940053283,-0.3828125,-0.23046875,9.65234375,0.0,0.0,0.0,,,,0.9997309480125115,-0.011972524466134083,0.019860991563338218,0.00048089295476559467
1919741.001037904,-0.421875,-0.23046875,9.6484375,0.0,0.0,0.0,,,,0.9997309480125115,-0.011972524466134083,0.019860991563338218,0.00048089295476559467
1919741.031615465,-0.421875,-0.23046875,9.69140625,0.0,0.0,0.0,,,,0.9997309480125115,-0.011972524466134083,0.019860991563338218,0.00048089295476559467
1919741.062167873,-0.3828125,-0.23046875,9.6875,0.0,0.0,0.0,,,,0.9997309480125115,-0.011972524466134083,0.019860991563338218,0.00048089295476559467
1919741.280449472,-0.421875,-0.23046875,9.69140625,0.0,0.0,0.0,,,,0.9997309480125115,-0.011972524466134083,0.019860991563338218,0.00048089295476559467
1919741.310767408,-0.3828125,-0.23046875,9.6875,0.0,0.0,0.0,,,,0.9997309480125115,-0.011972524466134083,0.019860991563338218,0.00048089295476559467
1919741.341450253,-0.3828125,-0.23046875,9.65234375,0.0,0.0,0.0,,,,0.9997309480125115,-0.011972524466134083,0.019860991563338218,0.00048089295476559467
1919741.372951301,-0.3828125,-0.23046875,9.6875,0.0,0.0,0.0,,,,0.9997309480125115,-0.011972524466134083,0.019860991563338218,0.00048089295476559467
1919741.402439258,-0.421875,-0.23046875,9.69140625,0.0,0.0,0.0,,,,0.9997309480125115,-0.011972524466134083,0.019860991563338218,0.00048089295476559467
1919741.4382048,-0.3828125,-0.23046875,9.65234375,0.0,0.0,0.0,,,,0.9997309480125115,-0.011972524466134083,0.019860991563338218,0.00048089295476559467
1919741.498231821,-0.3828125,-0.23046875,9.6875,0.0,0.0,0.0,,,,0.9997309480125115,-0.011972524466134083,0.019860991563338218,0.00048089295476559467
1919741.529688324,-0.3828125,-0.23046875,9.65234375,0.0,0.0,0.0,,,,0.9997309480125115,-0.011972524466134083,0.019860991563338218,0.00048089295476559467
1919741.559625768,-0.3828125,-0.23046875,9.6875,0.0,0.0,0.0,,,,0.9997309480125115,-0.011972524466134083,0.019860991563338218,0.00048089295476559467
1919741.590378887,-0.421875,-0.23046875,9.6484375,0.0,0.0,0.0,,,,0.9997309480125115,-0.011972524466134083,0.019860991563338218,0.00048089295476559467
1919741.620686679,-0.3828125,-0.23046875,9.6875,0.0,0.0,0.0,,,,0.9997309480125115,-0.011972524466134083,0.019860991563338218,0.00048089295476559467
1919741.685753836,-0.421875,-0.23046875,9.69140625,0.0,0.0,0.0,,,,0.9997309480125115,-0.011972524466134083,0.019860991563338218,0.00048089295476559467
1919741.749253293,-0.3828125,-0.23046875,9.65234375,0.0,0.0,0.0,,,,0.9997309480125115,-0.011972524466134083,0.019860991563338218,0.00048089295476559467
1919741.777985864,-0.3828125,-0.23046875,9.6875,0.0,0.0,0.0,,,,0.9997309480125115,-0.011972524466134083,0.019860991563338218,0.00048089295476559467
1919741.808977776,-0.421875,-0.23046875,9.6484375,0.0,0.0,0.0,,,,0.9997309480125115,-0.011972524466134083,0.019860991563338218,0.00048089295476559467
1919741.839054648,-0.3828125,-0.23046875,9.6875,0.0,0.0,0.0,,,,0.9997309480125115,-0.011972524466134083,0.019860991563338218,0.00048089295476559467
1919741.869531278,-0.421875,-0.23046875,9.69140625,0.0,0.0,0.0,,,,0.9997309480125115,-0.011972524466134083,0.019860991563338218,0.00048089295476559467
1919741.899923713,-0.421875,-0.23046875,9.6484375,0.0,0.0,0.0,,,,0.9997309480125115,-0.011972524466134083,0.019860991563338218,0.00048089295476559467
1919741.93072477,-0.3828125,-0.23046875,9.65234375,0.0,0.0,0.0,,,,0.9997309480125115,-0.011972524466134083,0.019860991563338218,0.00048089295476559467
1919741.961103093,-0.3828125,-0.23046875,9.6875,0.0,0.0,0.0,,,,0.9997309480125115,-0.011972524466134083,0.019860991563338218,0.00048089295476559467
1919741.996697461,-0.3828125,-0.23046875,9.65234375,0.0,0.0,0.0,,,,0.9997309480125115,-0.011972524466134083,0.019860991563338218,0.00048089295476559467
1919742.026642841,-0.3828125,-0.23046875,9.6875,0.0,0.0,0.0,,,,0.9997309480125115,-0.011972524466134083,0.019860991563338218,0.00048089295476559467
1919742.118416486,-0.421875,-0.23046875,9.69140625,0.0,0.0,0.0,,,,0.9997309480125115,-0.011972524466134083,0.019860991563338218,0.00048089295476559467
1919742.148719991,-0.3828125,-0.23046875,9.65234375,0.0,0.0,0.0,,,,0.9997309480125115,-0.011972524466134083,0.019860991563338218,0.00048089295476559467
1919742.17965926,-0.3828125,-0.23046875,9.6875,0.0,0.0,0.0,,,,0.9997309480125115,-0.011972524466134083,0.019860991563338218,0.00048089295476559467
1919742.209989389,-0.421875,-0.23046875,9.69140625,0.0,0.0,0.0,,,,0.9997309480125115,-0.011972524466134083,0.019860991563338218,0.00048089295476559467
1919742.244349284,-0.421875,-0.23046875,9.69140625,-0.001953125,-0.001953125,0.001953125,,,,0.999723506773822,-0.011988163545065454,0.020221843452911406,0.0005205631897695721
1919742.274498095,-0.421875,-0.23046875,9.6484375,-0.001953125,-0.001953125,0.001953125,,,,0.9997167972065458,-0.012007529974366115,0.020538653078738135,0.0005552807508402993
1919742.294731664,-0.421875,-0.23046875,9.6484375,-0.00390625,0.0,0.0,,,,0.999711663170027,-0.012035801275063368,0.02077059000588804,0.0005591066921795092
1919742.304986374,-0.421875,-0.23046875,9.69140625,-0.00390625,0.0,0.0,,,,0.999709203722004,-0.012038514857202035,0.02088700828636257,0.000561282812198263
1919742.33650435,-0.3828125,-0.23046875,9.65234375,-0.00390625,0.0,0.0,,,,0.9997163215080819,-0.012067122559460837,0.020526779285770784,0.000558923642190048
1919742.367660523,-0.3828125,-0.23046875,9.6875,-0.00390625,0.0,0.0,,,,0.9997236129174149,-0.012052618185854746,0.02017724851847443,0.0005575055521704734
1919742.397358055,-0.3828125,-0.23046875,9.6875,0.001953125,0.0,0.001953125,,,,0.9997317385225651,-0.011909534876112671,0.019856296771399745,0.0005843357001705294
1919742.441526532,-0.3828125,-0.23046875,9.6875,-0.001953125,0.001953125,0.001953125,,,,0.9997408684645053,-0.011900368209695785,0.019395598768234528,0.0006228215892618099
1919742.491173848,-0.421875,-0.23046875,9.69140625,-0.00390625,0.001953125,0.0,,,,0.9997275382117102,-0.011995689341027793,0.020013862726479714,0.0006309335564734496
1919742.544239133,-0.421875,-0.23046875,9.69140625,0.001953125,0.0,0.0,,,,0.9997162256956283,-0.01190788727060574,0.02062191501059373,0.0006379051137653856
1919742.554405296,-0.3828125,-0.23046875,9.6875,0.001953125,0.0,0.0,,,,0.9997187599040483,-0.011896672054366189,0.020505252078532,0.0006363388551091146
1919742.594141082,-0.3828125,-0.23046875,9.6875,0.0,0.0,0.0,,,,0.9997187599040483,-0.011896672054366189,0.020505252078532,0.0006363388551091146
1919742.64610777,-0.3828125,-0.23046875,9.6875,-0.00390625,0.0,-0.001953125,,,,0.9997296247853326,-0.012000264242797168,0.01990813704380276,0.0005805722405128247
1919742.67729668,-0.3828125,-0.23046875,9.65234375,-0.00390625,0.0,-0.001953125,,,,0.9997371773171465,-0.011879252199295375,0.019599891546365343,0.0005512789680071935
1919742.694175514,-0.3828125,-0.23046875,9.65234375,0.001953125,0.0,-0.001953125,,,,0.9997330732976785,-0.011917368328379876,0.01978564120730032,0.0005356201269158018
1919742.707145129,-0.421875,-0.23046875,9.69140625,0.001953125,0.0,-0.001953125,,,,0.9997302963040027,-0.011902992879820218,0.01993434955515294,0.0005245190437346689
1919742.737396056,-0.3828125,-0.23046875,9.6875,0.001953125,0.0,-0.001953125,,,,0.9997376684318404,-0.01186180121221637,0.019587020911481026,0.0004905122656010053
1919742.744747148,-0.3828125,-0.23046875,9.6875,0.0,0.0,-0.00390625,,,,0.9997358394304345,-0.011880581366712014,0.019669159448879585,0.00047677173588707656
1919742.794302397,-0.3828125,-0.23046875,9.6875,0.001953125,0.0,0.001953125,,,,0.9997238703610346,-0.011950918847691047,0.02022570922793376,0.0005284460961713443
1919742.834554136,-0.3828125,-0.23046875,9.65234375,0.001953125,0.0,0.001953125,,,,0.9997337103906458,-0.011897965533560522,0.019764392849642994,0.0005616938664356286
1919742.840801352,-0.3828125,-0.23046875,9.65234375,0.0,0.0,0.001953125,,,,0.9997320947667064,-0.011947964132787444,0.01981572332442552,0.0005674113012549259
1919742.895192665,-0.3828125,-0.23046875,9.65234375,-0.001953125,-0.001953125,0.001953125,,,,0.9997464159426229,-0.0115744154658422,0.01930662724938302,0.0006251885775578903
1919742.926399944,-0.421875,-0.23046875,9.69140625,-0.001953125,-0.001953125,0.001953125,,,,0.9997391765316667,-0.011650888680110258,0.019631616325032672,0.0006598039220694395
1919742.944153366,-0.421875,-0.23046875,9.69140625,0.00390625,0.0,-0.001953125,,,,0.9997353228482888,-0.011639953098542332,0.01983384501213281,0.0006436872891956228
1919742.956514641,-0.3828125,-0.23046875,9.6875,0.00390625,0.0,-0.001953125,,,,0.9997350719120361,-0.011748623615116726,0.019782860049399414,0.0006279175520319066
1919742.993920334,-0.3828125,-0.23046875,9.6875,-0.001953125,0.001953125,0.0,,,,0.9997316139502975,-0.01219424922097462,0.019688009653830475,0.0006185710474966321
1919743.017384315,-0.421875,-0.23046875,9.6484375,-0.001953125,0.001953125,0.0,,,,0.9997259462495169,-0.012186277024242985,0.019978473473667914,0.0006226118039541154
1919743.043417373,-0.421875,-0.23046875,9.6484375,0.001953125,0.001953125,0.001953125,,,,0.9997202194524765,-0.012122067263149156,0.020300584744091046,0.0006515843828376838
1919743.047971924,-0.3828125,-0.23046875,9.6875,0.001953125,0.001953125,0.001953125,,,,0.9997213988504964,-0.01209833399126607,0.02025648212907361,0.0006556880335450822
1919743.093685637,-0.3828125,-0.23046875,9.6875,0.0,0.001953125,-0.001953125,,,,0.9997326026160916,-0.011911777180305224,0.01981067101676734,0.0006083952070299881
1919743.145881198,-0.3828125,-0.23046875,9.6875,0.0,0.0,-0.001953125,,,,0.9997454327062391,-0.011802977037065112,0.019221190035230432,0.0005526026664626249
1919743.193020686,-0.3828125,-0.23046875,9.6875,0.00390625,0.0,0.0,,,,0.9997349977466762,-0.011807865782796047,0.019753487975166215,0.0005552467235328076
1919743.235954114,-0.3828125,-0.23046875,9.65234375,0.00390625,0.0,0.0,,,,0.9997268295107027,-0.012180148538863704,0.01994019488923597,0.0005467776779882005
1919743.243155154,-0.3828125,-0.23046875,9.65234375,0.001953125,0.0,0.0,,,,0.9997285888411961,-0.012100757232489167,0.019900263003292444,0.000547595097576806
1919743.266594366,-0.3828125,-0.23046875,9.6875,0.001953125,0.0,0.0,,,,0.9997347176929945,-0.01186838028108636,0.019731550638229532,0.0005492706284653567
1919743.292886952,-0.3828125,-0.23046875,9.6875,0.001953125,0.0,0.001953125,,,,0.9997305403515413,-0.012140715061175922,0.0197769027199991,0.0005690738285656865
1919743.343068142,-0.3828125,-0.23046875,9.6875,-0.001953125,0.0,0.0,,,,0.9997386072308116,-0.011621675736184858,0.01968037942042012,0.0005801130478512717
1919743.358259143,-0.421875,-0.23046875,9.6484375,-0.001953125,0.0,0.0,,,,0.9997347232781506,-0.011662405149180688,0.019852777481765668,0.000581897203589839
1919743.394062798,-0.421875,-0.23046875,9.69140625,-0.001953125,0.00390625,0.0,,,,0.9997241271119399,-0.011747166968418071,0.020330540593796555,0.0005855404766495918
1919743.423629286,-0.3828125,-0.23046875,9.6875,-0.001953125,0.00390625,0.0,,,,0.9997282936042381,-0.011858973294623525,0.02005909860952265,0.0005798987232386164
1919743.443593854,-0.3828125,-0.23046875,9.6875,0.0,0.0,0.0,,,,0.9997282936042381,-0.011858973294623525,0.02005909860952265,0.0005798987232386164
1919743.492910503,-0.3828125,-0.23046875,9.6875,-0.001953125,0.0,0.001953125,,,,0.9997380306516964,-0.011972295831461973,0.019497398073390078,0.0006210229943664481
1919743.541429429,-0.3828125,-0.23046875,9.6875,0.0,0.0,0.0,,,,0.9997380306516964,-0.011972295831461973,0.019497398073390078,0.0006210229943664481
1919743.576348607,-0.421875,-0.23046875,9.6484375,0.0,0.0,0.0,,,,0.9997380306516964,-0.011972295831461973,0.019497398073390078,0.0006210229943664481
1919743.59218763,-0.421875,-0.23046875,9.6484375,0.0,0.001953125,0.0,,,,0.999734186880853,-0.011970293838136905,0.019694655453646185,0.0006230519003373049
1919743.607016443,-0.3828125,-0.23046875,9.6875,0.0,0.001953125,0.0,,,,0.999734033197301,-0.011821473721393888,0.01979198687867735,0.0006268026057620617
1919743.63958159,-0.3828125,-0.23046875,9.6875,-0.005859375,0.0,0.0,,,,0.9997336898397968,-0.012216697697941935,0.019568269199844227,0.0006201106228586288
1919743.670917449,-0.3828125,-0.23046875,9.65234375,-0.005859375,0.0,0.0,,,,0.9997312336657909,-0.012036333293273138,0.019803789361246833,0.0006301117872746432
1919743.691821664,-0.3828125,-0.23046875,9.65234375,-0.001953125,0.0,0.0,,,,0.99973371056432,-0.01181678148102304,0.01981080411616146,0.0006353558038563007
1919743.704572393,-0.3828125,-0.23046875,9.6875,-0.001953125,0.0,0.0,,,,0.9997342689076502,-0.011936275548179793,0.019710836973085514,0.000632300201443008
1919743.733445609,-0.3828125,-0.23046875,9.65234375,-0.001953125,0.0,0.0,,,,0.9997271363368794,-0.011982371515982068,0.020041720901268722,0.000636449394149008
1919743.742114794,-0.3828125,-0.23046875,9.65234375,-0.00390625,0.0,0.0,,,,0.9997290984162416,-0.0119822555477675,0.019943693001484252,0.0006359569949605424
1919743.764290571,-0.3828125,-0.23046875,9.6875,-0.00390625,0.0,0.0,,,,0.9997343985797941,-0.011930600781156622,0.019707579918494002,0.0006358891840429892
1919743.793546681,-0.3828125,-0.23046875,9.6875,0.0,0.0,0.0,,,,0.9997343985797941,-0.011930600781156622,0.019707579918494002,0.0006358891840429892
1919743.796233362,-0.421875,-0.23046875,9.69140625,0.0,0.0,0.0,,,,0.9997343985797941,-0.011930600781156622,0.019707579918494002,0.0006358891840429892
1919743.82515074,-0.3828125,-0.23046875,9.65234375,0.0,0.0,0.0,,,,0.9997343985797941,-0.011930600781156622,0.019707579918494002,0.0006358891840429892
1919743.841693498,-0.3828125,-0.23046875,9.65234375,0.001953125,0.0,0.0,,,,0.9997306036084189,-0.011935288271229236,0.019896301458231232,0.0006374095326338879
1919743.855173115,-0.3828125,-0.23046875,9.6875,0.001953125,0.0,0.0,,,,0.99973416237918,-0.01188755481007577,0.019745532875780007,0.0006360378041573539
1919743.941310893,-0.3828125,-0.23046875,9.6875,0.0,0.001953125,0.0,,,,0.9997376744706542,-0.012584238436152057,0.019127036010099727,0.0006129277760665933
1919743.991531859,-0.3828125,-0.23046875,9.6875,-0.001953125,0.001953125,0.0,,,,0.9997340615271281,-0.01220149560166525,0.01955856452006615,0.0006263237737446994
1919744.043080518,-0.3828125,-0.23046875,9.6875,-0.00390625,0.0,-0.001953125,,,,0.9997331562351127,-0.01179114206923417,0.019855359147216492,0.0005916130644277038
1919744.091172838,-0.3828125,-0.23046875,9.6875,0.001953125,0.0,-0.001953125,,,,0.999737508152296,-0.0121110603928127,0.01944105013781339,0.0005315817327842283
1919744.104824589,-0.3828125,-0.23046875,9.65234375,0.001953125,0.0,-0.001953125,,,,0.9997357049233758,-0.012031577546332481,0.01958290062419124,0.0005210050388093776
1919744.134848371,-0.421875,-0.23046875,9.69140625,0.001953125,0.0,-0.001953125,,,,0.9997295425193,-0.011980478075738847,0.019926471044841926,0.0004956923715051893
1919744.141963008,-0.421875,-0.23046875,9.69140625,0.0,0.001953125,0.0,,,,0.9997278222939205,-0.01197644306791236,0.02001498102672891,0.0004966662823360497
1919744.165761048,-0.3828125,-0.23046875,9.6875,0.0,0.001953125,0.0,,,,0.9997334898225376,-0.01190021128071234,0.01977598279446119,0.0004947759468617612
1919744.191136036,-0.3828125,-0.23046875,9.6875,0.001953125,0.001953125,0.001953125,,,,0.9997393810808426,-0.011840112875021324,0.019511928943685558,0.0005160155976752394
1919744.240783768,-0.3828125,-0.23046875,9.6875,-0.001953125,-0.001953125,-0.001953125,,,,0.9997272107162481,-0.012027063353500261,0.020015749930075405,0.00047292212697484163
1919744.291643636,-0.3828125,-0.23046875,9.65234375,-0.001953125,0.0,0.0,,,,0.9997399594001566,-0.011846888345691463,0.019479270127312376,0.00047207033920077267
1919744.322541912,-0.3828125,-0.23046875,9.6875,-0.001953125,0.0,0.0,,,,0.9997319712039113,-0.011942263296639933,0.019827808408111557,0.00047551427619359844
1919744.340871578,-0.3828125,-0.23046875,9.6875,0.0,0.0,0.0,,,,0.9997319712039113,-0.011942263296639933,0.019827808408111557,0.00047551427619359844
1919744.383189081,-0.3828125,-0.23046875,9.65234375,0.0,0.0,0.0,,,,0.9997319712039113,-0.011942263296639933,0.019827808408111557,0.00047551427619359844
1919744.414264803,-0.3828125,-0.23046875,9.6875,0.0,0.0,0.0,,,,0.9997319712039113,-0.011942263296639933,0.019827808408111557,0.00047551427619359844
1919744.475166957,-0.3828125,-0.23046875,9.65234375,0.0,0.0,0.0,,,,0.9997319712039113,-0.011942263296639933,0.019827808408111557,0.00047551427619359844
1919744.512552809,-0.3828125,-0.23046875,9.6875,0.0,0.0,0.0,,,,0.9997319712039113,-0.011942263296639933,0.019827808408111557,0.00047551427619359844
1919744.790452838,-0.421875,-0.23046875,9.6484375,0.0,0.0,0.0,,,,0.9997319712039113,-0.011942263296639933,0.019827808408111557,0.00047551427619359844
1919744.82013437,-0.421875,-0.23046875,9.69140625,0.0,0.0,0.0,,,,0.9997319712039113,-0.011942263296639933,0.019827808408111557,0.00047551427619359844
1919744.851242093,-0.3828125,-0.23046875,9.6875,0.0,0.0,0.0,,,,0.9997319712039113,-0.011942263296639933,0.019827808408111557,0.00047551427619359844
1919744.973639797,-0.421875,-0.23046875,9.69140625,0.0,0.0,0.0,,,,0.9997319712039113,-0.011942263296639933,0.019827808408111557,0.00047551427619359844
1919745.003316272,-0.3828125,-0.23046875,9.6875,0.0,0.0,0.0,,,,0.9997319712039113,-0.011942263296639933,0.019827808408111557,0.00047551427619359844
1919745.252613654,-0.421875,-0.23046875,9.69140625,0.0,0.0,0.0,,,,0.9997319712039113,-0.011942263296639933,0.019827808408111557,0.00047551427619359844
1919745.284968554,-0.3828125,-0.23046875,9.6875,0.0,0.0,0.0,,,,0.9997319712039113,-0.011942263296639933,0.019827808408111557,0.00047551427619359844
1919745.43976772,-0.3828125,-0.23046875,9.65234375,0.0,0.0,0.0,,,,0.9997319712039113,-0.011942263296639933,0.019827808408111557,0.00047551427619359844
1919745.501187779,-0.3828125,-0.23046875,9.6875,0.0,0.0,0.0,,,,0.9997319712039113,-0.011942263296639933,0.019827808408111557,0.00047551427619359844
1919745.630292874,-0.3828125,-0.23046875,9.65234375,0.0,0.0,0.0,,,,0.9997319712039113,-0.011942263296639933,0.019827808408111557,0.00047551427619359844
1919745.659736894,-0.3828125,-0.23046875,9.6875,0.0,0.0,0.0,,,,0.9997319712039113,-0.011942263296639933,0.019827808408111557,0.00047551427619359844
1919745.689378552,-0.3828125,-0.23046875,9.65234375,0.0,0.0,0.0,,,,0.9997319712039113,-0.011942263296639933,0.019827808408111557,0.00047551427619359844
1919745.719642055,-0.3828125,-0.23046875,9.6875,0.0,0.0,0.0,,,,0.9997319712039113,-0.011942263296639933,0.019827808408111557,0.00047551427619359844
1919745.750217056,-0.421875,-0.23046875,9.69140625,0.0,0.0,0.0,,,,0.9997319712039113,-0.011942263296639933,0.019827808408111557,0.00047551427619359844
1919745.780395084,-0.3828125,-0.23046875,9.6875,0.0,0.0,0.0,,,,0.9997319712039113,-0.011942263296639933,0.019827808408111557,0.00047551427619359844
1919745.871994003,-0.421875,-0.23046875,9.6484375,0.0,0.0,0.0,,,,0.9997319712039113,-0.011942263296639933,0.019827808408111557,0.00047551427619359844
1919745.90926958,-0.421875,-0.23046875,9.69140625,0.0,0.0,0.0,,,,0.9997319712039113,-0.011942263296639933,0.019827808408111557,0.00047551427619359844
1919745.937305424,-0.3828125,-0.23046875,9.6875,0.0,0.0,0.0,,,,0.9997319712039113,-0.011942263296639933,0.019827808408111557,0.00047551427619359844
1919746.497691171,-0.421875,-0.23046875,9.69140625,0.0,0.0,0.0,,,,0.9997319712039113,-0.011942263296639933,0.019827808408111557,0.00047551427619359844
1919746.527207833,-0.3828125,-0.23046875,9.65234375,0.0,0.0,0.0,,,,0.9997319712039113,-0.011942263296639933,0.019827808408111557,0.00047551427619359844
1919746.557860309,-0.3828125,-0.23046875,9.6875,0.0,0.0,0.0,,,,0.9997319712039113,-0.011942263296639933,0.019827808408111557,0.00047551427619359844
1919746.710030491,-0.3828125,-0.23046875,9.65234375,0.0,0.0,0.0,,,,0.9997319712039113,-0.011942263296639933,0.019827808408111557,0.00047551427619359844
1919746.746502392,-0.421875,-0.23046875,9.6484375,0.0,0.0,0.0,,,,0.9997319712039113,-0.011942263296639933,0.019827808408111557,0.00047551427619359844
1919746.774699619,-0.3828125,-0.23046875,9.6875,0.0,0.0,0.0,,,,0.9997319712039113,-0.011942263296639933,0.019827808408111557,0.00047551427619359844
1919746.807402274,-0.421875,-0.23046875,9.69140625,0.0,0.0,0.0,,,,0.9997319712039113,-0.011942263296639933,0.019827808408111557,0.00047551427619359844
1919746.836317828,-0.3828125,-0.23046875,9.6875,0.0,0.0,0.0,,,,0.9997319712039113,-0.011942263296639933,0.019827808408111557,0.00047551427619359844
1919746.899057068,-0.421875,-0.23046875,9.69140625,0.0,0.0,0.0,,,,0.9997319712039113,-0.011942263296639933,0.019827808408111557,0.00047551427619359844
1919746.931259963,-0.3828125,-0.23046875,9.6875,0.0,0.0,0.0,,,,0.9997319712039113,-0.011942263296639933,0.019827808408111557,0.00047551427619359844
1919746.989452491,-0.3828125,-0.23046875,9.65234375,0.0,0.0,0.0,,,,0.9997319712039113,-0.011942263296639933,0.019827808408111557,0.00047551427619359844
1919747.055346363,-0.3828125,-0.23046875,9.6875,0.0,0.0,0.0,,,,0.9997319712039113,-0.011942263296639933,0.019827808408111557,0.00047551427619359844
1919747.085464677,-0.421875,-0.23046875,9.6484375,0.0,0.0,0.0,,,,0.9997319712039113,-0.011942263296639933,0.019827808408111557,0.00047551427619359844
1919747.115883993,-0.3828125,-0.23046875,9.6875,0.0,0.0,0.0,,,,0.9997319712039113,-0.011942263296639933,0.019827808408111557,0.00047551427619359844
1919747.20746768,-0.421875,-0.23046875,9.69140625,0.0,0.0,0.0,,,,0.9997319712039113,-0.011942263296639933,0.019827808408111557,0.00047551427619359844
1919747.24133431,-0.3828125,-0.23046875,9.6875,0.0,0.0,0.0,,,,0.9997319712039113,-0.011942263296639933,0.019827808408111557,0.00047551427619359844
1919747.395252231,-0.421875,-0.23046875,9.69140625,0.0,0.0,0.0,,,,0.9997319712039113,-0.011942263296639933,0.019827808408111557,0.00047551427619359844
1919747.426554232,-0.3828125,-0.23046875,9.6875,0.0,0.0,0.0,,,,0.9997319712039113,-0.011942263296639933,0.019827808408111557,0.00047551427619359844
1919747.45611896,-0.421875,-0.23046875,9.69140625,0.0,0.0,0.0,,,,0.9997319712039113,-0.011942263296639933,0.019827808408111557,0.00047551427619359844
1919747.486742122,-0.3828125,-0.23046875,9.65234375,0.0,0.0,0.0,,,,0.9997319712039113,-0.011942263296639933,0.019827808408111557,0.00047551427619359844
1919747.517723409,-0.34375,-0.23046875,9.6875,0.0,0.0,0.0,,,,0.9997319712039113,-0.011942263296639933,0.019827808408111557,0.00047551427619359844
1919747.548142565,-0.3828125,-0.23046875,9.6875,0.0,0.0,0.0,,,,0.9997319712039113,-0.011942263296639933,0.019827808408111557,0.00047551427619359844
1919747.581551997,-0.421875,-0.23046875,9.69140625,0.0,0.0,0.0,,,,0.9997319712039113,-0.011942263296639933,0.019827808408111557,0.00047551427619359844
1919747.644724562,-0.3828125,-0.23046875,9.6875,0.0,0.0,0.0,,,,0.9997319712039113,-0.011942263296639933,0.019827808408111557,0.00047551427619359844
1919747.675353549,-0.34375,-0.23046875,9.65234375,0.0,0.0,0.0,,,,0.9997319712039113,-0.011942263296639933,0.019827808408111557,0.00047551427619359844
1919747.70587546,-0.3828125,-0.23046875,9.6875,0.0,0.0,0.0,,,,0.9997319712039113,-0.011942263296639933,0.019827808408111557,0.00047551427619359844
1919747.736222806,-0.421875,-0.23046875,9.69140625,0.0,0.0,0.0,,,,0.9997319712039113,-0.011942263296639933,0.019827808408111557,0.00047551427619359844
1919747.766142521,-0.421875,-0.23046875,9.6484375,0.0,0.0,0.0,,,,0.9997319712039113,-0.011942263296639933,0.019827808408111557,0.00047551427619359844
1919747.79724042,-0.34375,-0.23046875,9.6875,0.0,0.0,0.0,,,,0.9997319712039113,-0.011942263296639933,0.019827808408111557,0.00047551427619359844
1919747.829265389,-0.3828125,-0.23046875,9.6875,0.0,0.0,0.0,,,,0.9997319712039113,-0.011942263296639933,0.019827808408111557,0.00047551427619359844
1919747.858158703,-0.421875,-0.23046875,9.6484375,0.0,0.0,0.0,,,,0.9997319712039113,-0.011942263296639933,0.019827808408111557,0.00047551427619359844
1919747.892774094,-0.421875,-0.23046875,9.69140625,0.0,0.0,0.0,,,,0.9997319712039113,-0.011942263296639933,0.019827808408111557,0.00047551427619359844
1919747.921580396,-0.3828125,-0.23046875,9.6875,0.0,0.0,0.0,,,,0.9997319712039113,-0.011942263296639933,0.019827808408111557,0.00047551427619359844
1919747.984652415,-0.3828125,-0.23046875,9.65234375,0.0,0.0,0.0,,,,0.9997319712039113,-0.011942263296639933,0.019827808408111557,0.00047551427619359844
1919748.015447679,-0.421875,-0.23046875,9.69140625,0.0,0.0,0.0,,,,0.9997319712039113,-0.011942263296639933,0.019827808408111557,0.00047551427619359844
1919748.076184836,-0.3828125,-0.23046875,9.65234375,0.0,0.0,0.0,,,,0.9997319712039113,-0.011942263296639933,0.019827808408111557,0.00047551427619359844
1919748.106837791,-0.3828125,-0.23046875,9.6875,0.0,0.0,0.0,,,,0.9997319712039113,-0.011942263296639933,0.019827808408111557,0.00047551427619359844
1919748.143318365,-0.421875,-0.23046875,9.69140625,0.0,0.0,0.0,,,,0.9997319712039113,-0.011942263296639933,0.019827808408111557,0.00047551427619359844
1919748.204285577,-0.3828125,-0.23046875,9.6875,0.0,0.0,0.0,,,,0.9997319712039113,-0.011942263296639933,0.019827808408111557,0.00047551427619359844
1919748.263973835,-0.421875,-0.23046875,9.69140625,0.0,0.0,0.0,,,,0.9997319712039113,-0.011942263296639933,0.019827808408111557,0.00047551427619359844
1919748.294895408,-0.3828125,-0.23046875,9.6875,0.0,0.0,0.0,,,,0.9997319712039113,-0.011942263296639933,0.019827808408111557,0.00047551427619359844
1919748.324663182,-0.3828125,-0.23046875,9.65234375,0.0,0.0,0.0,,,,0.9997319712039113,-0.011942263296639933,0.019827808408111557,0.00047551427619359844
1919748.35556389,-0.3828125,-0.19140625,9.6875,0.0,0.0,0.0,,,,0.9997319712039113,-0.011942263296639933,0.019827808408111557,0.00047551427619359844
1919748.38657561,-0.3828125,-0.23046875,9.6875,0.0,0.0,0.0,,,,0.9997319712039113,-0.011942263296639933,0.019827808408111557,0.00047551427619359844
1919748.418190453,-0.421875,-0.23046875,9.69140625,0.0,0.0,0.0,,,,0.9997319712039113,-0.011942263296639933,0.019827808408111557,0.00047551427619359844
1919748.45253614,-0.3828125,-0.23046875,9.6875,0.0,0.0,0.0,,,,0.9997319712039113,-0.011942263296639933,0.019827808408111557,0.00047551427619359844
1919748.544095378,-0.421875,-0.23046875,9.69140625,0.0,0.0,0.0,,,,0.9997319712039113,-0.011942263296639933,0.019827808408111557,0.00047551427619359844
1919748.573531557,-0.3828125,-0.23046875,9.6875,0.0,0.0,0.0,,,,0.9997319712039113,-0.011942263296639933,0.019827808408111557,0.00047551427619359844
1919748.635632695,-0.421875,-0.23046875,9.69140625,0.0,0.0,0.0,,,,0.9997319712039113,-0.011942263296639933,0.019827808408111557,0.00047551427619359844
1919748.665594332,-0.3828125,-0.23046875,9.65234375,0.0,0.0,0.0,,,,0.9997319712039113,-0.011942263296639933,0.019827808408111557,0.00047551427619359844
1919748.702371299,-0.3828125,-0.23046875,9.6875,0.0,0.0,0.0,,,,0.9997319712039113,-0.011942263296639933,0.019827808408111557,0.00047551427619359844
1919748.733376042,-0.3828125,-0.23046875,9.65234375,0.0,0.0,0.0,,,,0.9997319712039113,-0.011942263296639933,0.019827808408111557,0.00047551427619359844
1919748.762365103,-0.3828125,-0.23046875,9.6875,0.0,0.0,0.0,,,,0.9997319712039113,-0.011942263296639933,0.019827808408111557,0.00047551427619359844
1919748.823239128,-0.421875,-0.23046875,9.6484375,0.0,0.0,0.0,,,,0.9997319712039113,-0.011942263296639933,0.019827808408111557,0.00047551427619359844
1919748.854601451,-0.3828125,-0.23046875,9.6875,0.0,0.0,0.0,,,,0.9997319712039113,-0.011942263296639933,0.019827808408111557,0.00047551427619359844
1919748.883965884,-0.3828125,-0.23046875,9.65234375,0.0,0.0,0.0,,,,0.9997319712039113,-0.011942263296639933,0.019827808408111557,0.00047551427619359844
1919748.914615928,-0.3828125,-0.23046875,9.6875,0.0,0.0,0.0,,,,0.9997319712039113,-0.011942263296639933,0.019827808408111557,0.00047551427619359844
1919748.944837477,-0.421875,-0.23046875,9.69140625,0.0,0.0,0.0,,,,0.9997319712039113,-0.011942263296639933,0.019827808408111557,0.00047551427619359844
1919748.978404898,-0.3828125,-0.23046875,9.6875,0.0,0.0,0.0,,,,0.9997319712039113,-0.011942263296639933,0.019827808408111557,0.00047551427619359844
1919749.071601886,-0.421875,-0.23046875,9.6484375,0.0,0.0,0.0,,,,0.9997319712039113,-0.011942263296639933,0.019827808408111557,0.00047551427619359844
1919749.102485666,-0.421875,-0.23046875,9.69140625,0.0,0.0,0.0,,,,0.9997319712039113,-0.011942263296639933,0.019827808408111557,0.00047551427619359844
1919749.131956726,-0.421875,-0.23046875,9.6484375,0.0,0.0,0.0,,,,0.9997319712039113,-0.011942263296639933,0.019827808408111557,0.00047551427619359844
1919749.163027008,-0.3828125,-0.23046875,9.6875,0.0,0.0,0.0,,,,0.9997319712039113,-0.011942263296639933,0.019827808408111557,0.00047551427619359844
1919749.194116714,-0.3828125,-0.23046875,9.65234375,0.0,0.0,0.0,,,,0.9997319712039113,-0.011942263296639933,0.019827808408111557,0.00047551427619359844
1919749.226237462,-0.421875,-0.23046875,9.6484375,0.0,0.0,0.0,,,,0.9997319712039113,-0.011942263296639933,0.019827808408111557,0.00047551427619359844
1919749.290367852,-0.3828125,-0.23046875,9.6875,0.0,0.0,0.0,,,,0.9997319712039113,-0.011942263296639933,0.019827808408111557,0.00047551427619359844
1919749.412151967,-0.3828125,-0.23046875,9.65234375,0.0,0.0,0.0,,,,0.9997319712039113,-0.011942263296639933,0.019827808408111557,0.00047551427619359844
1919749.442738489,-0.3828125,-0.23046875,9.6875,0.0,0.0,0.0,,,,0.9997319712039113,-0.011942263296639933,0.019827808408111557,0.00047551427619359844
1919749.472891684,-0.3828125,-0.23046875,9.65234375,0.0,0.0,0.0,,,,0.9997319712039113,-0.011942263296639933,0.019827808408111557,0.00047551427619359844
1919749.504330554,-0.3828125,-0.23046875,9.6875,0.0,0.0,0.0,,,,0.9997319712039113,-0.011942263296639933,0.019827808408111557,0.00047551427619359844
1919749.571346479,-0.3828125,-0.23046875,9.65234375,0.0,0.0,0.0,,,,0.9997319712039113,-0.011942263296639933,0.019827808408111557,0.00047551427619359844
1919749.600567387,-0.3828125,-0.23046875,9.6875,0.0,0.0,0.0,,,,0.9997319712039113,-0.011942263296639933,0.019827808408111557,0.00047551427619359844
1919749.630668165,-0.421875,-0.23046875,9.69140625,0.0,0.0,0.0,,,,0.9997319712039113,-0.011942263296639933,0.019827808408111557,0.00047551427619359844
1919749.661228829,-0.3828125,-0.23046875,9.6875,0.0,0.0,0.0,,,,0.9997319712039113,-0.011942263296639933,0.019827808408111557,0.00047551427619359844
1919749.752485433,-0.3828125,-0.23046875,9.65234375,0.0,0.0,0.0,,,,0.9997319712039113,-0.011942263296639933,0.019827808408111557,0.00047551427619359844
1919749.783075251,-0.3828125,-0.23046875,9.6875,0.0,0.0,0.0,,,,0.9997319712039113,-0.011942263296639933,0.019827808408111557,0.00047551427619359844
1919749.970835929,-0.3828125,-0.23046875,9.65234375,0.0,0.0,0.0,,,,0.9997319712039113,-0.011942263296639933,0.019827808408111557,0.00047551427619359844
1919750.001865953,-0.3828125,-0.23046875,9.6875,0.0,0.0,0.0,,,,0.9997319712039113,-0.011942263296639933,0.019827808408111557,0.00047551427619359844
1919750.062118229,-0.421875,-0.23046875,9.69140625,0.0,0.0,0.0,,,,0.9997319712039113,-0.011942263296639933,0.019827808408111557,0.00047551427619359844
1919750.128430963,-0.3828125,-0.23046875,9.6875,0.0,0.0,0.0,,,,0.9997319712039113,-0.011942263296639933,0.019827808408111557,0.00047551427619359844
1919750.220114941,-0.421875,-0.23046875,9.6484375,0.0,0.0,0.0,,,,0.9997319712039113,-0.011942263296639933,0.019827808408111557,0.00047551427619359844
1919750.250226087,-0.3828125,-0.23046875,9.65234375,0.0,0.0,0.0,,,,0.9997319712039113,-0.011942263296639933,0.019827808408111557,0.00047551427619359844
1919750.310998253,-0.3828125,-0.23046875,9.6875,0.0,0.0,0.0,,,,0.9997319712039113,-0.011942263296639933,0.019827808408111557,0.00047551427619359844
1919750.498263426,-0.421875,-0.23046875,9.69140625,0.0,0.0,0.0,,,,0.9997319712039113,-0.011942263296639933,0.019827808408111557,0.00047551427619359844
1919750.56010798,-0.3828125,-0.23046875,9.6875,0.0,0.0,0.0,,,,0.9997319712039113,-0.011942263296639933,0.019827808408111557,0.00047551427619359844
1919750.687472249,-0.421875,-0.23046875,9.6484375,0.0,0.0,0.0,,,,0.9997319712039113,-0.011942263296639933,0.019827808408111557,0.00047551427619359844
1919750.717316473,-0.3828125,-0.23046875,9.6875,0.0,0.0,0.0,,,,0.9997319712039113,-0.011942263296639933,0.019827808408111557,0.00047551427619359844
1919750.777805142,-0.421875,-0.23046875,9.69140625,0.0,0.0,0.0,,,,0.9997319712039113,-0.011942263296639933,0.019827808408111557,0.00047551427619359844
1919750.808799325,-0.421875,-0.23046875,9.6484375,0.0,0.0,0.0,,,,0.9997319712039113,-0.011942263296639933,0.019827808408111557,0.00047551427619359844
1919750.839620094,-0.3828125,-0.23046875,9.6875,0.0,0.0,0.0,,,,0.9997319712039113,-0.011942263296639933,0.019827808408111557,0.00047551427619359844
1919750.930639794,-0.421875,-0.23046875,9.69140625,0.0,0.0,0.0,,,,0.9997319712039113,-0.011942263296639933,0.019827808408111557,0.00047551427619359844
1919750.967139408,-0.421875,-0.23046875,9.6484375,0.0,0.0,0.0,,,,0.9997319712039113,-0.011942263296639933,0.019827808408111557,0.00047551427619359844
1919750.998041908,-0.3828125,-0.23046875,9.6875,0.0,0.0,0.0,,,,0.9997319712039113,-0.011942263296639933,0.019827808408111557,0.00047551427619359844
1919751.057762967,-0.3828125,-0.23046875,9.65234375,0.0,0.0,0.0,,,,0.9997319712039113,-0.011942263296639933,0.019827808408111557,0.00047551427619359844
1919751.088330512,-0.3828125,-0.23046875,9.6875,0.0,0.0,0.0,,,,0.9997319712039113,-0.011942263296639933,0.019827808408111557,0.00047551427619359844
1919751.1184006,-0.3828125,-0.23046875,9.65234375,0.0,0.0,0.0,,,,0.9997319712039113,-0.011942263296639933,0.019827808408111557,0.00047551427619359844
1919751.148996818,-0.3828125,-0.26953125,9.69140625,0.0,0.0,0.0,,,,0.9997319712039113,-0.011942263296639933,0.019827808408111557,0.00047551427619359844
1919751.179858484,-0.3828125,-0.23046875,9.6875,0.0,0.0,0.0,,,,0.9997319712039113,-0.011942263296639933,0.019827808408111557,0.00047551427619359844
1919751.210147076,-0.421875,-0.23046875,9.69140625,0.0,0.0,0.0,,,,0.9997319712039113,-0.011942263296639933,0.019827808408111557,0.00047551427619359844
1919751.278225309,-0.3828125,-0.23046875,9.6875,0.0,0.0,0.0,,,,0.9997319712039113,-0.011942263296639933,0.019827808408111557,0.00047551427619359844
1919751.337095971,-0.3828125,-0.23046875,9.65234375,0.0,0.0,0.0,,,,0.9997319712039113,-0.011942263296639933,0.019827808408111557,0.00047551427619359844
1919751.367616122,-0.421875,-0.23046875,9.69140625,0.0,0.0,0.0,,,,0.9997319712039113,-0.011942263296639933,0.019827808408111557,0.00047551427619359844
1919751.398124433,-0.3828125,-0.23046875,9.6875,0.0,0.0,0.0,,,,0.9997319712039113,-0.011942263296639933,0.019827808408111557,0.00047551427619359844
1919751.4589262,-0.421875,-0.23046875,9.69140625,0.0,0.0,0.0,,,,0.9997319712039113,-0.011942263296639933,0.019827808408111557,0.00047551427619359844
1919751.490472369,-0.3828125,-0.23046875,9.6875,0.0,0.0,0.0,,,,0.9997319712039113,-0.011942263296639933,0.019827808408111557,0.00047551427619359844
1919751.677897452,-0.421875,-0.23046875,9.69140625,0.0,0.0,0.0,,,,0.9997319712039113,-0.011942263296639933,0.019827808408111557,0.00047551427619359844
1919751.707457699,-0.421875,-0.19140625,9.6484375,0.0,0.0,0.0,,,,0.9997319712039113,-0.011942263296639933,0.019827808408111557,0.00047551427619359844
1919751.738499788,-0.3828125,-0.23046875,9.6875,0.0,0.0,0.0,,,,0.9997319712039113,-0.011942263296639933,0.019827808408111557,0.00047551427619359844
1919751.768616374,-0.34375,-0.23046875,9.65234375,0.0,0.0,0.0,,,,0.9997319712039113,-0.011942263296639933,0.019827808408111557,0.00047551427619359844
1919751.805683303,-0.3828125,-0.23046875,9.6875,0.0,0.0,0.0,,,,0.9997319712039113,-0.011942263296639933,0.019827808408111557,0.00047551427619359844
1919751.834806672,-0.421875,-0.23046875,9.69140625,0.0,0.0,0.0,,,,0.9997319712039113,-0.011942263296639933,0.019827808408111557,0.00047551427619359844
1919751.864687346,-0.3828125,-0.23046875,9.65234375,0.0,0.0,0.0,,,,0.9997319712039113,-0.011942263296639933,0.019827808408111557,0.00047551427619359844
1919751.926169967,-0.3828125,-0.23046875,9.6875,0.0,0.0,0.0,,,,0.9997319712039113,-0.011942263296639933,0.019827808408111557,0.00047551427619359844
1919751.957239929,-0.3828125,-0.23046875,9.65234375,0.0,0.0,0.0,,,,0.9997319712039113,-0.011942263296639933,0.019827808408111557,0.00047551427619359844
1919751.988300258,-0.421875,-0.23046875,9.69140625,0.0,0.0,0.0,,,,0.9997319712039113,-0.011942263296639933,0.019827808408111557,0.00047551427619359844
1919752.048041317,-0.34375,-0.23046875,9.6875,0.0,0.0,0.0,,,,0.9997319712039113,-0.011942263296639933,0.019827808408111557,0.00047551427619359844
1919752.085476739,-0.3828125,-0.23046875,9.6875,0.0,0.0,0.0,,,,0.9997319712039113,-0.011942263296639933,0.019827808408111557,0.00047551427619359844
1919752.114443334,-0.421875,-0.23046875,9.6484375,0.0,0.0,0.0,,,,0.9997319712039113,-0.011942263296639933,0.019827808408111557,0.00047551427619359844
1919752.144291751,-0.421875,-0.23046875,9.69140625,0.0,0.0,0.0,,,,0.9997319712039113,-0.011942263296639933,0.019827808408111557,0.00047551427619359844
1919752.175345776,-0.3828125,-0.23046875,9.65234375,0.0,0.0,0.0,,,,0.9997319712039113,-0.011942263296639933,0.019827808408111557,0.00047551427619359844
1919752.206352216,-0.3828125,-0.23046875,9.6875,0.0,0.0,0.0,,,,0.9997319712039113,-0.011942263296639933,0.019827808408111557,0.00047551427619359844
1919752.236356382,-0.421875,-0.23046875,9.69140625,0.0,0.0,0.0,,,,0.9997319712039113,-0.011942263296639933,0.019827808408111557,0.00047551427619359844
1919752.297094338,-0.3828125,-0.23046875,9.6875,0.0,0.0,0.0,,,,0.9997319712039113,-0.011942263296639933,0.019827808408111557,0.00047551427619359844
1919752.327605273,-0.34375,-0.23046875,9.6875,0.0,0.0,0.0,,,,0.9997319712039113,-0.011942263296639933,0.019827808408111557,0.00047551427619359844
1919752.358179794,-0.421875,-0.23046875,9.69140625,0.0,0.0,0.0,,,,0.9997319712039113,-0.011942263296639933,0.019827808408111557,0.00047551427619359844
1919752.393949816,-0.4609375,-0.23046875,9.6875,0.0,0.0,0.0,,,,0.9997319712039113,-0.011942263296639933,0.019827808408111557,0.00047551427619359844
1919752.423305385,-0.3828125,-0.26953125,9.69140625,0.0,0.0,0.0,,,,0.9997319712039113,-0.011942263296639933,0.019827808408111557,0.00047551427619359844
1919752.454944453,-0.34375,-0.23046875,9.6875,0.0,0.0,0.0,,,,0.9997319712039113,-0.011942263296639933,0.019827808408111557,0.00047551427619359844
1919752.484588479,-0.421875,-0.23046875,9.6484375,0.0,0.0,0.0,,,,0.9997319712039113,-0.011942263296639933,0.019827808408111557,0.00047551427619359844
1919752.515792621,-0.421875,-0.23046875,9.69140625,0.0,0.0,0.0,,,,0.9997319712039113,-0.011942263296639933,0.019827808408111557,0.00047551427619359844
1919752.545764338,-0.3828125,-0.23046875,9.6875,0.0,0.0,0.0,,,,0.9997319712039113,-0.011942263296639933,0.019827808408111557,0.00047551427619359844
1919752.576281865,-0.3828125,-0.23046875,9.65234375,0.0,0.0,0.0,,,,0.9997319712039113,-0.011942263296639933,0.019827808408111557,0.00047551427619359844
1919752.63809557,-0.3828125,-0.23046875,9.6875,0.0,0.0,0.0,,,,0.9997319712039113,-0.011942263296639933,0.019827808408111557,0.00047551427619359844
1919752.673650256,-0.421875,-0.23046875,9.69140625,0.0,0.0,0.0,,,,0.9997319712039113,-0.011942263296639933,0.019827808408111557,0.00047551427619359844
1919752.70419316,-0.3828125,-0.23046875,9.6875,0.0,0.0,0.0,,,,0.9997319712039113,-0.011942263296639933,0.019827808408111557,0.00047551427619359844
1919752.764477822,-0.3828125,-0.23046875,9.65234375,0.0,0.0,0.0,,,,0.9997319712039113,-0.011942263296639933,0.019827808408111557,0.00047551427619359844
1919752.795217116,-0.3828125,-0.23046875,9.6875,0.0,0.0,0.0,,,,0.9997319712039113,-0.011942263296639933,0.019827808408111557,0.00047551427619359844
1919753.043361499,-0.3828125,-0.23046875,9.65234375,0.0,0.0,0.0,,,,0.9997319712039113,-0.011942263296639933,0.019827808408111557,0.00047551427619359844
1919753.074720174,-0.3828125,-0.23046875,9.6875,0.0,0.0,0.0,,,,0.9997319712039113,-0.011942263296639933,0.019827808408111557,0.00047551427619359844
1919753.165450232,-0.421875,-0.23046875,9.69140625,0.0,0.0,0.0,,,,0.9997319712039113,-0.011942263296639933,0.019827808408111557,0.00047551427619359844
1919753.196206263,-0.3828125,-0.23046875,9.65234375,0.0,0.0,0.0,,,,0.9997319712039113,-0.011942263296639933,0.019827808408111557,0.00047551427619359844
1919753.232777592,-0.3828125,-0.23046875,9.6875,0.0,0.0,0.0,,,,0.9997319712039113,-0.011942263296639933,0.019827808408111557,0.00047551427619359844
1919753.29289972,-0.421875,-0.23046875,9.69140625,0.0,0.0,0.0,,,,0.9997319712039113,-0.011942263296639933,0.019827808408111557,0.00047551427619359844
1919753.321080017,-0.3828125,-0.23046875,9.6875,0.0,0.0,0.0,,,,0.9997319712039113,-0.011942263296639933,0.019827808408111557,0.00047551427619359844
1919753.444923849,-0.421875,-0.23046875,9.69140625,0.0,0.0,0.0,,,,0.9997319712039113,-0.011942263296639933,0.019827808408111557,0.00047551427619359844
1919753.475352285,-0.3828125,-0.23046875,9.65234375,0.0,0.0,0.0,,,,0.9997319712039113,-0.011942263296639933,0.019827808408111557,0.00047551427619359844
1919753.572054958,-0.421875,-0.23046875,9.69140625,0.0,0.0,0.0,,,,0.9997319712039113,-0.011942263296639933,0.019827808408111557,0.00047551427619359844
1919753.602076469,-0.3828125,-0.23046875,9.6875,0.0,0.0,0.0,,,,0.9997319712039113,-0.011942263296639933,0.019827808408111557,0.00047551427619359844
1919753.693531191,-0.421875,-0.23046875,9.69140625,0.0,0.0,0.0,,,,0.9997319712039113,-0.011942263296639933,0.019827808408111557,0.00047551427619359844
1919753.724317815,-0.3828125,-0.23046875,9.6875,0.0,0.0,0.0,,,,0.9997319712039113,-0.011942263296639933,0.019827808408111557,0.00047551427619359844
1919753.973672318,-0.421875,-0.23046875,9.69140625,0.0,0.0,0.0,,,,0.9997319712039113,-0.011942263296639933,0.019827808408111557,0.00047551427619359844
1919754.003617154,-0.3828125,-0.23046875,9.65234375,0.0,0.0,0.0,,,,0.9997319712039113,-0.011942263296639933,0.019827808408111557,0.00047551427619359844
1919754.03471342,-0.3828125,-0.23046875,9.6875,0.0,0.0,0.0,,,,0.9997319712039113,-0.011942263296639933,0.019827808408111557,0.00047551427619359844
1919754.312887794,-0.3828125,-0.23046875,9.65234375,0.0,0.0,0.0,,,,0.9997319712039113,-0.011942263296639933,0.019827808408111557,0.00047551427619359844
1919754.347958273,-0.3828125,-0.23046875,9.6875,0.0,0.0,0.0,,,,0.9997319712039113,-0.011942263296639933,0.019827808408111557,0.00047551427619359844
1919754.564667689,-0.3828125,-0.23046875,9.65234375,0.0,0.0,0.0,,,,0.9997319712039113,-0.011942263296639933,0.019827808408111557,0.00047551427619359844
1919754.596496236,-0.3828125,-0.23046875,9.6875,0.0,0.0,0.0,,,,0.9997319712039113,-0.011942263296639933,0.019827808408111557,0.00047551427619359844
1919754.658685633,-0.421875,-0.23046875,9.69140625,0.0,0.0,0.0,,,,0.9997319712039113,-0.011942263296639933,0.019827808408111557,0.00047551427619359844
1919754.719112763,-0.3828125,-0.23046875,9.6875,0.0,0.0,0.0,,,,0.9997319712039113,-0.011942263296639933,0.019827808408111557,0.00047551427619359844
1919754.780045158,-0.421875,-0.23046875,9.69140625,0.0,0.0,0.0,,,,0.9997319712039113,-0.011942263296639933,0.019827808408111557,0.00047551427619359844
1919754.81028098,-0.3828125,-0.23046875,9.6875,0.0,0.0,0.0,,,,0.9997319712039113,-0.011942263296639933,0.019827808408111557,0.00047551427619359844
1919754.906706779,-0.3828125,-0.23046875,9.65234375,0.0,0.0,0.0,,,,0.9997319712039113,-0.011942263296639933,0.019827808408111557,0.00047551427619359844
1919754.939109009,-0.3828125,-0.23046875,9.6875,0.0,0.0,0.0,,,,0.9997319712039113,-0.011942263296639933,0.019827808408111557,0.00047551427619359844
1919755.151109277,-0.3828125,-0.23046875,9.65234375,0.0,0.0,0.0,,,,0.9997319712039113,-0.011942263296639933,0.019827808408111557,0.00047551427619359844
1919755.187895909,-0.421875,-0.23046875,9.69140625,0.0,0.0,0.0,,,,0.9997319712039113,-0.011942263296639933,0.019827808408111557,0.00047551427619359844
1919755.219020752,-0.3828125,-0.23046875,9.6875,0.0,0.0,0.0,,,,0.9997319712039113,-0.011942263296639933,0.019827808408111557,0.00047551427619359844
1919755.339397876,-0.421875,-0.23046875,9.69140625,0.0,0.0,0.0,,,,0.9997319712039113,-0.011942263296639933,0.019827808408111557,0.00047551427619359844
1919755.369393466,-0.3828125,-0.23046875,9.6875,0.0,0.0,0.0,,,,0.9997319712039113,-0.011942263296639933,0.019827808408111557,0.00047551427619359844
1919755.464072136,-0.421875,-0.23046875,9.69140625,0.0,0.0,0.0,,,,0.9997319712039113,-0.011942263296639933,0.019827808408111557,0.00047551427619359844
1919755.494716771,-0.3828125,-0.23046875,9.6875,0.0,0.0,0.0,,,,0.9997319712039113,-0.011942263296639933,0.019827808408111557,0.00047551427619359844
1919755.587655606,-0.3828125,-0.23046875,9.65234375,0.0,0.0,0.0,,,,0.9997319712039113,-0.011942263296639933,0.019827808408111557,0.00047551427619359844
1919755.619331316,-0.3828125,-0.23046875,9.6875,0.0,0.0,0.0,,,,0.9997319712039113,-0.011942263296639933,0.019827808408111557,0.00047551427619359844
1919755.837143938,-0.421875,-0.23046875,9.69140625,0.0,0.0,0.0,,,,0.9997319712039113,-0.011942263296639933,0.019827808408111557,0.00047551427619359844
1919755.866934336,-0.3828125,-0.23046875,9.6875,0.0,0.0,0.0,,,,0.9997319712039113,-0.011942263296639933,0.019827808408111557,0.00047551427619359844
1919755.898752259,-0.3828125,-0.23046875,9.65234375,0.0,0.0,0.0,,,,0.9997319712039113,-0.011942263296639933,0.019827808408111557,0.00047551427619359844
1919755.927772136,-0.3828125,-0.23046875,9.6875,0.0,0.0,0.0,,,,0.9997319712039113,-0.011942263296639933,0.019827808408111557,0.00047551427619359844
1919755.958878707,-0.3828125,-0.23046875,9.65234375,0.0,0.0,0.0,,,,0.9997319712039113,-0.011942263296639933,0.019827808408111557,0.00047551427619359844
1919755.989569392,-0.3828125,-0.23046875,9.6875,0.0,0.0,0.0,,,,0.9997319712039113,-0.011942263296639933,0.019827808408111557,0.00047551427619359844
1919756.146953891,-0.3828125,-0.23046875,9.65234375,0.0,0.0,0.0,,,,0.9997319712039113,-0.011942263296639933,0.019827808408111557,0.00047551427619359844
1919756.177086541,-0.3828125,-0.23046875,9.6875,0.0,0.0,0.0,,,,0.9997319712039113,-0.011942263296639933,0.019827808408111557,0.00047551427619359844
1919756.304959275,-0.3828125,-0.23046875,9.65234375,0.0,0.0,0.0,,,,0.9997319712039113,-0.011942263296639933,0.019827808408111557,0.00047551427619359844
1919756.334099604,-0.421875,-0.23046875,9.69140625,0.0,0.0,0.0,,,,0.9997319712039113,-0.011942263296639933,0.019827808408111557,0.00047551427619359844
1919756.366812661,-0.3828125,-0.23046875,9.6875,0.0,0.0,0.0,,,,0.9997319712039113,-0.011942263296639933,0.019827808408111557,0.00047551427619359844
1919756.456359511,-0.3828125,-0.23046875,9.65234375,0.0,0.0,0.0,,,,0.9997319712039113,-0.011942263296639933,0.019827808408111557,0.00047551427619359844
1919756.486736874,-0.3828125,-0.23046875,9.6875,0.0,0.0,0.0,,,,0.9997319712039113,-0.011942263296639933,0.019827808408111557,0.00047551427619359844
1919756.613458305,-0.421875,-0.23046875,9.69140625,0.0,0.0,0.0,,,,0.9997319712039113,-0.011942263296639933,0.019827808408111557,0.00047551427619359844
1919756.674243303,-0.3828125,-0.23046875,9.6875,0.0,0.0,0.0,,,,0.9997319712039113,-0.011942263296639933,0.019827808408111557,0.00047551427619359844
1919756.765934993,-0.421875,-0.23046875,9.69140625,0.0,0.0,0.0,,,,0.9997319712039113,-0.011942263296639933,0.019827808408111557,0.00047551427619359844
1919756.796906359,-0.3828125,-0.23046875,9.6875,0.0,0.0,0.0,,,,0.9997319712039113,-0.011942263296639933,0.019827808408111557,0.00047551427619359844
1919756.861071053,-0.3828125,-0.23046875,9.65234375,0.0,0.0,0.0,,,,0.9997319712039113,-0.011942263296639933,0.019827808408111557,0.00047551427619359844
1919756.894334432,-0.3828125,-0.23046875,9.6875,0.0,0.0,0.0,,,,0.9997319712039113,-0.011942263296639933,0.019827808408111557,0.00047551427619359844
1919757.015527295,-0.3828125,-0.23046875,9.65234375,0.0,0.0,0.0,,,,0.9997319712039113,-0.011942263296639933,0.019827808408111557,0.00047551427619359844
1919757.045669386,-0.3828125,-0.23046875,9.6875,0.0,0.0,0.0,,,,0.9997319712039113,-0.011942263296639933,0.019827808408111557,0.00047551427619359844
1919757.419089455,-0.421875,-0.23046875,9.69140625,0.0,0.0,0.0,,,,0.9997319712039113,-0.011942263296639933,0.019827808408111557,0.00047551427619359844
1919757.482811703,-0.3828125,-0.23046875,9.6875,0.0,0.0,0.0,,,,0.9997319712039113,-0.011942263296639933,0.019827808408111557,0.00047551427619359844
1919757.543410551,-0.421875,-0.23046875,9.69140625,0.0,0.0,0.0,,,,0.9997319712039113,-0.011942263296639933,0.019827808408111557,0.00047551427619359844
1919757.574273881,-0.3828125,-0.23046875,9.6875,0.0,0.0,0.0,,,,0.9997319712039113,-0.011942263296639933,0.019827808408111557,0.00047551427619359844
1919757.604103033,-0.34375,-0.23046875,9.65234375,0.0,0.0,0.0,,,,0.9997319712039113,-0.011942263296639933,0.019827808408111557,0.00047551427619359844
1919757.634646705,-0.3828125,-0.23046875,9.6875,0.0,0.0,0.0,,,,0.9997319712039113,-0.011942263296639933,0.019827808408111557,0.00047551427619359844
1919757.73231885,-0.421875,-0.23046875,9.6484375,0.0,0.0,0.0,,,,0.9997319712039113,-0.011942263296639933,0.019827808408111557,0.00047551427619359844
1919757.762077888,-0.3828125,-0.23046875,9.6875,0.0,0.0,0.0,,,,0.9997319712039113,-0.011942263296639933,0.019827808408111557,0.00047551427619359844
1919757.822252914,-0.421875,-0.23046875,9.69140625,0.0,0.0,0.0,,,,0.9997319712039113,-0.011942263296639933,0.019827808408111557,0.00047551427619359844
1919757.852828427,-0.3828125,-0.23046875,9.6875,0.0,0.0,0.0,,,,0.9997319712039113,-0.011942263296639933,0.019827808408111557,0.00047551427619359844
1919758.012772915,-0.3828125,-0.23046875,9.65234375,0.0,0.0,0.0,,,,0.9997319712039113,-0.011942263296639933,0.019827808408111557,0.00047551427619359844
1919758.070423121,-0.3828125,-0.23046875,9.6875,0.0,0.0,0.0,,,,0.9997319712039113,-0.011942263296639933,0.019827808408111557,0.00047551427619359844
1919758.10208635,-0.3828125,-0.23046875,9.65234375,0.0,0.0,0.0,,,,0.9997319712039113,-0.011942263296639933,0.019827808408111557,0.00047551427619359844
1919758.132773035,-0.3828125,-0.23046875,9.6875,0.0,0.0,0.0,,,,0.9997319712039113,-0.011942263296639933,0.019827808408111557,0.00047551427619359844
1919758.194885149,-0.3828125,-0.23046875,9.65234375,0.0,0.0,0.0,,,,0.9997319712039113,-0.011942263296639933,0.019827808408111557,0.00047551427619359844
1919758.223994629,-0.421875,-0.23046875,9.69140625,0.0,0.0,0.0,,,,0.9997319712039113,-0.011942263296639933,0.019827808408111557,0.00047551427619359844
1919758.254582079,-0.3828125,-0.23046875,9.6875,0.0,0.0,0.0,,,,0.9997319712039113,-0.011942263296639933,0.019827808408111557,0.00047551427619359844
1919758.34919073,-0.3828125,-0.23046875,9.65234375,0.0,0.0,0.0,,,,0.9997319712039113,-0.011942263296639933,0.019827808408111557,0.00047551427619359844
1919758.358785673,-0.3828125,-0.23046875,9.65234375,0.001953125,0.0,0.0,,,,0.9997344793429676,-0.011910957757136723,0.01971990798443943,0.0004744757512809512
1919758.381857704,-0.3828125,-0.23046875,9.6875,0.001953125,0.0,0.0,,,,0.9997330842864082,-0.011706103686318829,0.019912232372049695,0.00047991836022243345
1919758.410103508,-0.3828125,-0.23046875,9.6875,0.0,0.0,0.0,,,,0.9997330842864082,-0.011706103686318829,0.019912232372049695,0.00047991836022243345
1919758.458855177,-0.3828125,-0.23046875,9.6875,-0.001953125,0.001953125,0.001953125,,,,0.9997341898948668,-0.0121630148670029,0.019579201171445456,0.0005152728282312764
1919758.503205837,-0.421875,-0.23046875,9.69140625,-0.001953125,0.001953125,0.001953125,,,,0.9997235170730318,-0.012141942817618337,0.020128138630496003,0.0005662782116535501
1919758.510087282,-0.421875,-0.23046875,9.69140625,-0.00390625,0.0,-0.001953125,,,,0.9997219292851077,-0.0121434112804053,0.02020611105358726,0.0005610214141734793
1919758.533693603,-0.3828125,-0.23046875,9.6875,-0.00390625,0.0,-0.001953125,,,,0.9997277266996379,-0.012064192643340969,0.019965913470225482,0.0005385379634390822
1919758.597847225,-0.421875,-0.23046875,9.69140625,-0.00390625,0.0,-0.001953125,,,,0.9997121956163803,-0.01211938230120876,0.020698012232041537,0.000488669781890199
1919758.6074526,-0.421875,-0.23046875,9.69140625,-0.001953125,0.0,0.0,,,,0.9997101325257332,-0.012105081817419962,0.020805700506348605,0.0004906587559728852
1919758.631097163,-0.3828125,-0.23046875,9.6875,-0.001953125,0.0,0.0,,,,0.999715991917947,-0.012075900841674444,0.020539449734247935,0.0004890061263842674
1919758.657496217,-0.3828125,-0.23046875,9.6875,0.001953125,0.0,0.001953125,,,,0.9997231188882865,-0.011983089442610036,0.020244232084604217,0.0005120497944803763
1919758.691208378,-0.421875,-0.23046875,9.69140625,0.001953125,0.0,0.001953125,,,,0.9997158812621875,-0.011925715087844638,0.020630856214801863,0.0005494029994479486
1919758.708672831,-0.421875,-0.23046875,9.69140625,-0.001953125,0.0,0.0,,,,0.9997115952483294,-0.011936608309216263,0.020831195509193764,0.0005522696537225702
1919758.721610157,-0.3828125,-0.23046875,9.6875,-0.001953125,0.0,0.0,,,,0.9997145911218649,-0.011943785649239,0.02068281454164508,0.000550876613636462
1919758.758480504,-0.3828125,-0.23046875,9.6875,0.0,0.001953125,0.001953125,,,,0.999722750038567,-0.011921894465664629,0.020296624190950498,0.0005818368551011579
1919758.807662076,-0.3828125,-0.23046875,9.6875,0.005859375,0.001953125,0.001953125,,,,0.9997350671422615,-0.011751930682814682,0.01978138193326045,0.0006201452207227526
1919758.858687773,-0.3828125,-0.23046875,9.6875,-0.001953125,0.0,0.0,,,,0.9997312367231314,-0.012360290900946239,0.01960377201815888,0.0006079897551863206
1919758.90712644,-0.3828125,-0.23046875,9.6875,0.001953125,0.001953125,-0.001953125,,,,0.9997343654601573,-0.011778713633354476,0.01980236703168991,0.0005715619497692694
1919758.956228682,-0.3828125,-0.23046875,9.6875,0.001953125,0.0,0.0,,,,0.9997345131048843,-0.012221800824630999,0.019524854820063293,0.0005576161750217169
1919758.999781554,-0.3828125,-0.23046875,9.65234375,0.001953125,0.0,0.0,,,,0.9997322850024755,-0.011826062186856605,0.019879133223279957,0.0005680133563138474
1919759.004120131,-0.3828125,-0.23046875,9.65234375,0.001953125,-0.001953125,0.001953125,,,,0.9997324452328666,-0.011863919884608942,0.019848406524009515,0.0005710622931735802
1919759.031144454,-0.3828125,-0.23046875,9.6875,0.001953125,-0.001953125,0.001953125,,,,0.9997380947206299,-0.011924080088343659,0.019524544642056836,0.0005919754487435064
1919759.056899166,-0.3828125,-0.23046875,9.6875,0.001953125,-0.001953125,0.0,,,,0.9997335593693106,-0.011861824281792561,0.019792730348497194,0.0005960040510098296
1919759.106006144,-0.3828125,-0.23046875,9.6875,0.0,-0.001953125,0.001953125,,,,0.9997402726667064,-0.012157795197833558,0.01926589202551301,0.0006329523588340835
1919759.159983107,-0.3828125,-0.23046875,9.6875,-0.001953125,0.001953125,0.0,,,,0.9997315985281585,-0.011910396359440014,0.01986092726131831,0.0006457021099215322
1919759.206771831,-0.3828125,-0.23046875,9.6875,0.0,0.0,0.0,,,,0.9997315985281585,-0.011910396359440014,0.01986092726131831,0.0006457021099215322
1919759.254625327,-0.3828125,-0.23046875,9.6875,0.0,0.001953125,0.001953125,,,,0.9997419973436303,-0.011857585356407326,0.019361438085817015,0.0006863906564535593
1919759.305191969,-0.3828125,-0.23046875,9.6875,-0.001953125,0.0,-0.001953125,,,,0.9997293328598843,-0.011972476481719964,0.019937568949322155,0.0006435610432074412
1919759.356798198,-0.3828125,-0.23046875,9.6875,0.0,0.0,-0.001953125,,,,0.9997427164493458,-0.011770310738023647,0.019380709796544448,0.0005905754783835067
1919759.404581899,-0.3828125,-0.23046875,9.6875,0.00390625,0.0,0.001953125,,,,0.9997314623816472,-0.011861093319340854,0.0198975041525038,0.000637901265121924
1919759.453506119,-0.3828125,-0.23046875,9.6875,0.00390625,0.001953125,0.001953125,,,,0.9997409111962021,-0.011889592359418609,0.01939828601481782,0.0006742208849606303
1919759.495988012,-0.3828125,-0.23046875,9.65234375,0.00390625,0.001953125,0.001953125,,,,0.9997307965516591,-0.01186842038924482,0.019923838075622688,0.0007181225423068229
1919759.507127614,-0.3828125,-0.23046875,9.65234375,0.00390625,0.0,0.0,,,,0.9997323949258486,-0.011914960980167871,0.019815674393422234,0.0007150447552447476
1919759.529527527,-0.3828125,-0.23046875,9.6875,0.00390625,0.0,0.0,,,,0.9997384500617965,-0.011824366683725943,0.019562942952364493,0.0007120980326944677
1919759.557513258,-0.3828125,-0.23046875,9.6875,0.0,0.0,0.0,,,,0.9997384500617965,-0.011824366683725943,0.019562942952364493,0.0007120980326944677
1919759.777306873,-0.421875,-0.23046875,9.69140625,0.0,0.0,0.0,,,,0.9997384500617965,-0.011824366683725943,0.019562942952364493,0.0007120980326944677
1919759.806955955,-0.3828125,-0.23046875,9.65234375,0.0,0.0,0.0,,,,0.9997384500617965,-0.011824366683725943,0.019562942952364493,0.0007120980326944677
1919759.838765493,-0.3828125,-0.23046875,9.6875,0.0,0.0,0.0,,,,0.9997384500617965,-0.011824366683725943,0.019562942952364493,0.0007120980326944677
1919760.117881626,-0.421875,-0.23046875,9.69140625,0.0,0.0,0.0,,,,0.9997384500617965,-0.011824366683725943,0.019562942952364493,0.0007120980326944677
1919760.147866591,-0.3828125,-0.23046875,9.65234375,0.0,0.0,0.0,,,,0.9997384500617965,-0.011824366683725943,0.019562942952364493,0.0007120980326944677
1919760.178967017,-0.3828125,-0.23046875,9.6875,0.0,0.0,0.0,,,,0.9997384500617965,-0.011824366683725943,0.019562942952364493,0.0007120980326944677
1919760.303295825,-0.3828125,-0.23046875,9.65234375,0.0,0.0,0.0,,,,0.9997384500617965,-0.011824366683725943,0.019562942952364493,0.0007120980326944677
1919760.336754922,-0.3828125,-0.23046875,9.6875,0.0,0.0,0.0,,,,0.9997384500617965,-0.011824366683725943,0.019562942952364493,0.0007120980326944677
1919760.365890547,-0.421875,-0.23046875,9.6484375,0.0,0.0,0.0,,,,0.9997384500617965,-0.011824366683725943,0.019562942952364493,0.0007120980326944677
1919760.396554223,-0.3828125,-0.23046875,9.65234375,0.0,0.0,0.0,,,,0.9997384500617965,-0.011824366683725943,0.019562942952364493,0.0007120980326944677
1919760.427343279,-0.3828125,-0.23046875,9.6875,0.0,0.0,0.0,,,,0.9997384500617965,-0.011824366683725943,0.019562942952364493,0.0007120980326944677
1919760.488817132,-0.3828125,-0.23046875,9.65234375,0.0,0.0,0.0,,,,0.9997384500617965,-0.011824366683725943,0.019562942952364493,0.0007120980326944677
1919760.521388487,-0.3828125,-0.23046875,9.6875,0.0,0.0,0.0,,,,0.9997384500617965,-0.011824366683725943,0.019562942952364493,0.0007120980326944677
1919760.645605579,-0.3828125,-0.23046875,9.65234375,0.0,0.0,0.0,,,,0.9997384500617965,-0.011824366683725943,0.019562942952364493,0.0007120980326944677
1919760.675744341,-0.421875,-0.23046875,9.69140625,0.0,0.0,0.0,,,,0.9997384500617965,-0.011824366683725943,0.019562942952364493,0.0007120980326944677
1919760.706150857,-0.3828125,-0.23046875,9.6875,0.0,0.0,0.0,,,,0.9997384500617965,-0.011824366683725943,0.019562942952364493,0.0007120980326944677
1919760.737433305,-0.3828125,-0.23046875,9.65234375,0.0,0.0,0.0,,,,0.9997384500617965,-0.011824366683725943,0.019562942952364493,0.0007120980326944677
1919760.768357566,-0.3828125,-0.23046875,9.6875,0.0,0.0,0.0,,,,0.9997384500617965,-0.011824366683725943,0.019562942952364493,0.0007120980326944677
1919760.954640818,-0.421875,-0.23046875,9.69140625,0.0,0.0,0.0,,,,0.9997384500617965,-0.011824366683725943,0.019562942952364493,0.0007120980326944677
1919760.986472693,-0.3828125,-0.23046875,9.6875,0.0,0.0,0.0,,,,0.9997384500617965,-0.011824366683725943,0.019562942952364493,0.0007120980326944677
1919761.077692847,-0.421875,-0.23046875,9.69140625,0.0,0.0,0.0,,,,0.9997384500617965,-0.011824366683725943,0.019562942952364493,0.0007120980326944677
1919761.143933194,-0.3828125,-0.23046875,9.6875,0.0,0.0,0.0,,,,0.9997384500617965,-0.011824366683725943,0.019562942952364493,0.0007120980326944677
1919761.204240096,-0.3828125,-0.23046875,9.65234375,0.0,0.0,0.0,,,,0.9997384500617965,-0.011824366683725943,0.019562942952364493,0.0007120980326944677
1919761.235234983,-0.3828125,-0.23046875,9.6875,0.0,0.0,0.0,,,,0.9997384500617965,-0.011824366683725943,0.019562942952364493,0.0007120980326944677
1919761.296617761,-0.3828125,-0.19140625,9.65234375,0.0,0.0,0.0,,,,0.9997384500617965,-0.011824366683725943,0.019562942952364493,0.0007120980326944677
1919761.326553061,-0.3828125,-0.23046875,9.6875,0.0,0.0,0.0,,,,0.9997384500617965,-0.011824366683725943,0.019562942952364493,0.0007120980326944677
1919761.423044718,-0.3828125,-0.19140625,9.65234375,0.0,0.0,0.0,,,,0.9997384500617965,-0.011824366683725943,0.019562942952364493,0.0007120980326944677
1919761.454992085,-0.3828125,-0.23046875,9.65234375,0.0,0.0,0.0,,,,0.9997384500617965,-0.011824366683725943,0.019562942952364493,0.0007120980326944677
1919761.483748817,-0.3828125,-0.23046875,9.6875,0.0,0.0,0.0,,,,0.9997384500617965,-0.011824366683725943,0.019562942952364493,0.0007120980326944677
1919761.544285743,-0.3828125,-0.19140625,9.6875,0.0,0.0,0.0,,,,0.9997384500617965,-0.011824366683725943,0.019562942952364493,0.0007120980326944677
1919761.575335224,-0.3828125,-0.23046875,9.6875,0.0,0.0,0.0,,,,0.9997384500617965,-0.011824366683725943,0.019562942952364493,0.0007120980326944677
1919761.79437755,-0.421875,-0.23046875,9.69140625,0.0,0.0,0.0,,,,0.9997384500617965,-0.011824366683725943,0.019562942952364493,0.0007120980326944677
1919761.824415285,-0.3828125,-0.23046875,9.65234375,0.0,0.0,0.0,,,,0.9997384500617965,-0.011824366683725943,0.019562942952364493,0.0007120980326944677
1919761.916037596,-0.421875,-0.23046875,9.69140625,0.0,0.0,0.0,,,,0.9997384500617965,-0.011824366683725943,0.019562942952364493,0.0007120980326944677
1919761.948526805,-0.3828125,-0.23046875,9.6875,0.0,0.0,0.0,,,,0.9997384500617965,-0.011824366683725943,0.019562942952364493,0.0007120980326944677
1919762.072496496,-0.3828125,-0.23046875,9.65234375,0.0,0.0,0.0,,,,0.9997384500617965,-0.011824366683725943,0.019562942952364493,0.0007120980326944677
1919762.103609403,-0.421875,-0.23046875,9.69140625,0.0,0.0,0.0,,,,0.9997384500617965,-0.011824366683725943,0.019562942952364493,0.0007120980326944677
1919762.134154515,-0.3828125,-0.23046875,9.6875,0.0,0.0,0.0,,,,0.9997384500617965,-0.011824366683725943,0.019562942952364493,0.0007120980326944677
1919762.290779437,-0.421875,-0.23046875,9.6484375,0.0,0.0,0.0,,,,0.9997384500617965,-0.011824366683725943,0.019562942952364493,0.0007120980326944677
1919762.321510699,-0.3828125,-0.23046875,9.6875,0.0,0.0,0.0,,,,0.9997384500617965,-0.011824366683725943,0.019562942952364493,0.0007120980326944677
1919762.38318155,-0.421875,-0.23046875,9.6484375,0.0,0.0,0.0,,,,0.9997384500617965,-0.011824366683725943,0.019562942952364493,0.0007120980326944677
1919762.413285208,-0.3828125,-0.23046875,9.6875,0.0,0.0,0.0,,,,0.9997384500617965,-0.011824366683725943,0.019562942952364493,0.0007120980326944677
1919762.60096025,-0.3828125,-0.23046875,9.65234375,0.0,0.0,0.0,,,,0.9997384500617965,-0.011824366683725943,0.019562942952364493,0.0007120980326944677
1919762.632300396,-0.3828125,-0.23046875,9.6875,0.0,0.0,0.0,,,,0.9997384500617965,-0.011824366683725943,0.019562942952364493,0.0007120980326944677
1919762.662051562,-0.421875,-0.23046875,9.69140625,0.0,0.0,0.0,,,,0.9997384500617965,-0.011824366683725943,0.019562942952364493,0.0007120980326944677
1919762.692793481,-0.3828125,-0.23046875,9.6875,0.0,0.0,0.0,,,,0.9997384500617965,-0.011824366683725943,0.019562942952364493,0.0007120980326944677
1919762.78404538,-0.421875,-0.19140625,9.69140625,0.0,0.0,0.0,,,,0.9997384500617965,-0.011824366683725943,0.019562942952364493,0.0007120980326944677
1919762.818790599,-0.421875,-0.23046875,9.69140625,0.0,0.0,0.0,,,,0.9997384500617965,-0.011824366683725943,0.019562942952364493,0.0007120980326944677
1919762.850595369,-0.3828125,-0.26953125,9.69140625,0.0,0.0,0.0,,,,0.9997384500617965,-0.011824366683725943,0.019562942952364493,0.0007120980326944677
1919762.87996153,-0.3828125,-0.23046875,9.65234375,0.0,0.0,0.0,,,,0.9997384500617965,-0.011824366683725943,0.019562942952364493,0.0007120980326944677
1919762.909887357,-0.3828125,-0.19140625,9.65234375,0.0,0.0,0.0,,,,0.9997384500617965,-0.011824366683725943,0.019562942952364493,0.0007120980326944677
1919762.941856997,-0.3828125,-0.23046875,9.7265625,0.0,0.0,0.0,,,,0.9997384500617965,-0.011824366683725943,0.019562942952364493,0.0007120980326944677
1919762.971254007,-0.421875,-0.26953125,9.6875,0.0,0.0,0.0,,,,0.9997384500617965,-0.011824366683725943,0.019562942952364493,0.0007120980326944677
1919763.00171102,-0.421875,-0.23046875,9.6484375,0.0,0.0,0.0,,,,0.9997384500617965,-0.011824366683725943,0.019562942952364493,0.0007120980326944677
1919763.033229796,-0.34375,-0.19140625,9.6875,0.0,0.0,0.0,,,,0.9997384500617965,-0.011824366683725943,0.019562942952364493,0.0007120980326944677
1919763.063699577,-0.34375,-0.23046875,9.6875,0.0,0.0,0.0,,,,0.9997384500617965,-0.011824366683725943,0.019562942952364493,0.0007120980326944677
1919763.101198201,-0.421875,-0.23046875,9.69140625,0.0,0.0,0.0,,,,0.9997384500617965,-0.011824366683725943,0.019562942952364493,0.0007120980326944677
1919763.128640073,-0.421875,-0.23046875,9.6484375,0.0,0.0,0.0,,,,0.9997384500617965,-0.011824366683725943,0.019562942952364493,0.0007120980326944677
1919763.157354437,-0.34375,-0.23046875,9.6875,0.0,0.0,0.0,,,,0.9997384500617965,-0.011824366683725943,0.019562942952364493,0.0007120980326944677
1919763.22070256,-0.421875,-0.26953125,9.65234375,0.0,0.0,0.0,,,,0.9997384500617965,-0.011824366683725943,0.019562942952364493,0.0007120980326944677
1919763.252047314,-0.421875,-0.23046875,9.69140625,0.0,0.0,0.0,,,,0.9997384500617965,-0.011824366683725943,0.019562942952364493,0.0007120980326944677
1919763.281584905,-0.3828125,-0.23046875,9.6875,0.0,0.0,0.0,,,,0.9997384500617965,-0.011824366683725943,0.019562942952364493,0.0007120980326944677
1919763.342673273,-0.3828125,-0.26953125,9.69140625,0.0,0.0,0.0,,,,0.9997384500617965,-0.011824366683725943,0.019562942952364493,0.0007120980326944677
1919763.379643558,-0.421875,-0.15234375,9.61328125,0.0,0.0,0.0,,,,0.9997384500617965,-0.011824366683725943,0.019562942952364493,0.0007120980326944677
1919763.40778779,-0.421875,-0.23046875,9.6484375,0.0,0.0,0.0,,,,0.9997384500617965,-0.011824366683725943,0.019562942952364493,0.0007120980326944677
1919763.439548847,-0.3828125,-0.34375,9.69140625,0.0,0.0,0.0,,,,0.9997384500617965,-0.011824366683725943,0.019562942952364493,0.0007120980326944677
1919763.46934075,-0.3828125,-0.23046875,9.6875,0.0,0.0,0.0,,,,0.9997384500617965,-0.011824366683725943,0.019562942952364493,0.0007120980326944677
1919763.500070828,-0.421875,-0.15234375,9.65234375,0.0,0.0,0.0,,,,0.9997384500617965,-0.011824366683725943,0.019562942952364493,0.0007120980326944677
1919763.529973038,-0.3828125,-0.19140625,9.6875,0.0,0.0,0.0,,,,0.9997384500617965,-0.011824366683725943,0.019562942952364493,0.0007120980326944677
1919763.560786991,-0.3828125,-0.3046875,9.6875,0.0,0.0,0.0,,,,0.9997384500617965,-0.011824366683725943,0.019562942952364493,0.0007120980326944677
1919763.592460525,-0.3828125,-0.23046875,9.6875,0.0,0.0,0.0,,,,0.9997384500617965,-0.011824366683725943,0.019562942952364493,0.0007120980326944677
1919763.622212714,-0.3828125,-0.19140625,9.6875,0.0,0.0,0.0,,,,0.9997384500617965,-0.011824366683725943,0.019562942952364493,0.0007120980326944677
1919763.653401848,-0.3828125,-0.23046875,9.6875,0.0,0.0,0.0,,,,0.9997384500617965,-0.011824366683725943,0.019562942952364493,0.0007120980326944677
1919763.686230364,-0.3828125,-0.3046875,9.6875,0.0,0.0,0.0,,,,0.9997384500617965,-0.011824366683725943,0.019562942952364493,0.0007120980326944677
1919763.717867928,-0.3828125,-0.23046875,9.6875,0.0,0.0,0.0,,,,0.9997384500617965,-0.011824366683725943,0.019562942952364493,0.0007120980326944677
1919763.748762844,-0.3828125,-0.19140625,9.65234375,0.0,0.0,0.0,,,,0.9997384500617965,-0.011824366683725943,0.019562942952364493,0.0007120980326944677
1919763.779290547,-0.421875,-0.23046875,9.69140625,0.0,0.0,0.0,,,,0.9997384500617965,-0.011824366683725943,0.019562942952364493,0.0007120980326944677
1919763.809994832,-0.421875,-0.26953125,9.6875,0.0,0.0,0.0,,,,0.9997384500617965,-0.011824366683725943,0.019562942952364493,0.0007120980326944677
1919763.840885364,-0.3828125,-0.23046875,9.6875,0.0,0.0,0.0,,,,0.9997384500617965,-0.011824366683725943,0.019562942952364493,0.0007120980326944677
1919763.932572925,-0.421875,-0.23046875,9.69140625,0.0,0.0,0.0,,,,0.9997384500617965,-0.011824366683725943,0.019562942952364493,0.0007120980326944677
1919763.968871541,-0.3828125,-0.23046875,9.6875,0.0,0.0,0.0,,,,0.9997384500617965,-0.011824366683725943,0.019562942952364493,0.0007120980326944677
1919763.996558702,-0.3828125,-0.19140625,9.6875,0.0,0.0,0.0,,,,0.9997384500617965,-0.011824366683725943,0.019562942952364493,0.0007120980326944677
1919764.028955299,-0.3828125,-0.23046875,9.6875,0.0,0.0,0.0,,,,0.9997384500617965,-0.011824366683725943,0.019562942952364493,0.0007120980326944677
1919764.058746946,-0.3828125,-0.26953125,9.69140625,0.0,0.0,0.0,,,,0.9997384500617965,-0.011824366683725943,0.019562942952364493,0.0007120980326944677
1919764.089013809,-0.3828125,-0.23046875,9.6875,0.0,0.0,0.0,,,,0.9997384500617965,-0.011824366683725943,0.019562942952364493,0.0007120980326944677
1919764.150655827,-0.421875,-0.26953125,9.7265625,0.0,0.0,0.0,,,,0.9997384500617965,-0.011824366683725943,0.019562942952364493,0.0007120980326944677
1919764.180730299,-0.49609375,-0.15234375,9.6484375,0.0,0.0,0.0,,,,0.9997384500617965,-0.011824366683725943,0.019562942952364493,0.0007120980326944677
1919764.193823183,-0.49609375,-0.15234375,9.6484375,-0.001953125,0.0,0.0,,,,0.9997367683085203,-0.011756028213329403,0.019689541636929646,0.0007154319052492665
1919764.214995919,-0.34375,-0.23046875,9.61328125,-0.001953125,0.0,0.0,,,,0.9997408815053913,-0.011807633515903726,0.019448447923553144,0.0007123980223057996
1919764.248816052,-0.23046875,-0.3046875,9.69140625,0.0,0.001953125,0.001953125,,,,0.9997447656666049,-0.01198518161548367,0.019136746184499915,0.0007374885349624115
1919764.274931449,-0.4609375,-0.23046875,9.7265625,0.0,0.001953125,0.001953125,,,,0.9997385711302276,-0.011976013708572944,0.019462195897101655,0.0007664339542130155
1919764.291847627,-0.4609375,-0.23046875,9.7265625,0.0,0.001953125,0.0,,,,0.999734514455978,-0.011970405197616262,0.019672802413442533,0.0007686677282657958
1919764.308374353,-0.53515625,-0.15234375,9.69140625,0.0,0.001953125,0.0,,,,0.9997319036244962,-0.011883064214860338,0.019857425645843495,0.0007722091209843298
1919764.337218864,-0.421875,-0.23046875,9.69140625,0.0,0.001953125,0.0,,,,0.9997246724336573,-0.011885489465524863,0.020216643375771396,0.0007757565329607492
1919764.345099222,-0.421875,-0.23046875,9.69140625,0.0,0.001953125,0.001953125,,,,0.9997226683148799,-0.011886006257660677,0.020314871389199102,0.0007844189314493409
1919764.368371388,-0.3046875,-0.26953125,9.6875,0.0,0.001953125,0.001953125,,,,0.9997258538013837,-0.011993147820653048,0.020093252567651612,0.0008017778364456112
1919764.395011507,-0.3046875,-0.26953125,9.6875,0.001953125,0.001953125,0.001953125,,,,0.9997297508752786,-0.01208928665132872,0.01983935763782764,0.0008211282688726719
1919764.399647853,-0.34375,-0.26953125,9.69140625,0.001953125,0.001953125,0.001953125,,,,0.9997300968567815,-0.012119273335409379,0.019803462460116824,0.0008243343634313794
1919764.429800728,-0.421875,-0.19140625,9.69140625,0.001953125,0.001953125,0.001953125,,,,0.9997284448902707,-0.011827491512132013,0.020060059907557555,0.0008607661219132034
1919764.44598485,-0.421875,-0.19140625,9.69140625,0.0,0.0,0.001953125,,,,0.9997276345488444,-0.011686536765958223,0.020181816644819998,0.0008808261492086779
1919764.460301326,-0.4609375,-0.19140625,9.6875,0.0,0.0,0.001953125,,,,0.9997255015470556,-0.011612514925287766,0.020328911334775573,0.0008980075394233684
1919764.492844713,-0.4609375,-0.19140625,9.6875,0.0,0.001953125,0.0,,,,0.9997199226922296,-0.011444959749651134,0.020694689792946537,0.0009049215131309379
1919764.496689512,-0.421875,-0.23046875,9.69140625,0.0,0.001953125,0.0,,,,0.9997188047556219,-0.011462620570101728,0.02073887094519202,0.0009049749031533102
1919764.525979095,-0.3046875,-0.26953125,9.6875,0.0,0.001953125,0.0,,,,0.9997227527627773,-0.011609925522263087,0.02046510693694754,0.0008981290785623101
1919764.54388865,-0.3046875,-0.26953125,9.6875,-0.001953125,0.001953125,0.001953125,,,,0.999724908196548,-0.011716685654374228,0.020297680964030354,0.0009117873451305349
1919764.556370249,-0.3828125,-0.23046875,9.6875,-0.001953125,0.001953125,0.001953125,,,,0.9997267365370535,-0.011773541349347933,0.020173910879257077,0.000921573059423566
1919764.58447224,-0.4609375,-0.19140625,9.6875,-0.001953125,0.001953125,0.001953125,,,,0.9997217712825257,-0.011650487209823788,0.020487385120832396,0.000955626712598944
1919764.595337402,-0.4609375,-0.19140625,9.6875,0.001953125,0.0,0.0,,,,0.9997203199966304,-0.011580823094161261,0.02059729962990762,0.0009578988738983284
1919764.616637598,-0.421875,-0.23046875,9.69140625,0.001953125,0.0,0.0,,,,0.9997149168896309,-0.011626181746390551,0.020832606555943507,0.0009588276402258389
1919764.647873837,-0.421875,-0.23046875,9.69140625,-0.005859375,0.0,0.001953125,,,,0.9997053849979349,-0.011821342546453466,0.021175763229881944,0.0009930348243091835
1919764.652149627,-0.34375,-0.26953125,9.69140625,-0.005859375,0.0,0.001953125,,,,0.9997058231609347,-0.011859126268647517,0.021133749499725466,0.000996440838784297
1919764.678005911,-0.3828125,-0.23046875,9.6875,-0.005859375,0.0,0.001953125,,,,0.9997110104184117,-0.011944023059699799,0.02083738091332375,0.001019567565585986
1919764.693765827,-0.3828125,-0.23046875,9.6875,-0.001953125,-0.001953125,-0.00390625,,,,0.9997150034889295,-0.011953756777098945,0.02064085236823562,0.0009872748129830047
1919764.709209413,-0.421875,-0.23046875,9.69140625,-0.001953125,-0.001953125,-0.00390625,,,,0.9997115949352022,-0.011960924730968667,0.020802447482646653,0.0009599012585026323
1919764.739266605,-0.421875,-0.23046875,9.6484375,-0.001953125,-0.001953125,-0.00390625,,,,0.9997047075104947,-0.011988957631475129,0.021117320152918166,0.0009063475195796667
1919764.74646742,-0.421875,-0.23046875,9.6484375,-0.001953125,0.0,-0.001953125,,,,0.9997029327014965,-0.011991888486490682,0.021199763653687302,0.0009005440482830917
1919764.769711649,-0.3828125,-0.23046875,9.6875,-0.001953125,0.0,-0.001953125,,,,0.9997084869699229,-0.011998969588007334,0.020933211299455967,0.0008754849091052272
1919764.792604891,-0.3828125,-0.23046875,9.6875,0.001953125,0.0,0.0,,,,0.9997144577933827,-0.01195563657376195,0.020671349598808602,0.0008723180400148758
1919764.842691485,-0.3828125,-0.23046875,9.6875,0.0,0.001953125,0.0,,,,0.9997255673627508,-0.01192333939172299,0.02014633375706785,0.0008655490308182327
1919764.864411951,-0.421875,-0.23046875,9.69140625,0.0,0.001953125,0.0,,,,0.9997201237345599,-0.011919486796225672,0.02041680718449019,0.0008683427102598323
1919764.897364055,-0.3828125,-0.23046875,9.6875,0.00390625,0.0,0.001953125,,,,0.9997286243063823,-0.011845203890578368,0.02003916320345173,0.0008948884647768666
1919764.927198136,-0.34375,-0.23046875,9.6875,0.00390625,0.0,0.001953125,,,,0.999735994122396,-0.011794808783630744,0.01969722475703027,0.0009186287244162817
1919764.943401202,-0.34375,-0.23046875,9.6875,0.0,0.0,0.001953125,,,,0.9997395037256116,-0.011804644396987078,0.019511697128835142,0.0009320602347089059
1919764.957142748,-0.3828125,-0.23046875,9.6875,0.0,0.0,0.001953125,,,,0.9997359066655918,-0.011869453395829893,0.01965548969308724,0.0009458987981611228
1919764.988381579,-0.421875,-0.26953125,9.6875,0.0,0.0,0.001953125,,,,0.9997278050823224,-0.012120124977594224,0.019911521679768483,0.0009744845846587043
1919764.994754463,-0.421875,-0.26953125,9.6875,-0.001953125,0.0,-0.001953125,,,,0.999726073038779,-0.012177759666606855,0.01996356783313954,0.0009679955247566743
1919765.044621849,-0.421875,-0.26953125,9.6875,0.0,0.001953125,-0.001953125,,,,0.9997119252901036,-0.012579319930507888,0.020420300288137988,0.0009156849800192326
1919765.050753701,-0.3828125,-0.23046875,9.6875,0.0,0.001953125,-0.001953125,,,,0.9997134519424308,-0.012530190696310582,0.020375971850023405,0.000909998698107775
1919765.084760208,-0.34375,-0.23046875,9.6875,0.0,0.001953125,-0.001953125,,,,0.9997216080011911,-0.012441215277538241,0.020028972250680576,0.0008734577907583229
1919765.092957153,-0.34375,-0.23046875,9.6875,0.0,0.0,0.001953125,,,,0.9997236984400274,-0.012419675316045698,0.01993747026965403,0.0008807506366478928
1919765.114507822,-0.3828125,-0.23046875,9.6875,0.0,0.0,0.001953125,,,,0.9997283264925845,-0.01218944173961383,0.0198461900074897,0.0009052406308481892
1919765.144928449,-0.421875,-0.19140625,9.69140625,0.001953125,0.0,0.0,,,,0.9997274999979318,-0.011889754218514358,0.020068045370742093,0.000912714361961888
1919765.175024618,-0.421875,-0.26953125,9.6875,0.001953125,0.0,0.0,,,,0.99972021952183,-0.01212680192000154,0.02028783815086242,0.0009093830773861603
1919765.193086275,-0.421875,-0.26953125,9.6875,0.001953125,0.0,0.001953125,,,,0.9997157975798732,-0.012269764476979849,0.020418652643184373,0.0009249719751106413
1919765.206295899,-0.3828125,-0.26953125,9.69140625,0.001953125,0.0,0.001953125,,,,0.9997154367335577,-0.012396231720481179,0.020359435045592046,0.0009340237623359976
1919765.236974935,-0.3828125,-0.23046875,9.6875,0.001953125,0.0,0.001953125,,,,0.9997240450312194,-0.01214861345846406,0.02008270380262293,0.000964357521573403
1919765.244121893,-0.3828125,-0.23046875,9.6875,0.00390625,0.0,0.0,,,,0.9997261320088291,-0.01208794304150754,0.020015317461524174,0.0009641984261528045
1919765.267631987,-0.3828125,-0.19140625,9.6875,0.00390625,0.0,0.0,,,,0.9997305572682557,-0.011774282880200961,0.019981032506608185,0.0009682286557566949
1919765.294423758,-0.3828125,-0.19140625,9.6875,0.0,0.001953125,-0.001953125,,,,0.9997344007020351,-0.011469818413018905,0.01996681664320907,0.0009473920263159244
1919765.298758654,-0.3828125,-0.23046875,9.6875,0.0,0.001953125,-0.001953125,,,,0.9997342921728581,-0.01151367593625132,0.019947256016210002,0.000941964698440214
1919765.328362871,-0.421875,-0.23046875,9.69140625,0.0,0.001953125,-0.001953125,,,,0.9997262199677295,-0.011586108539948155,0.020307874465477584,0.0009151134519770587
1919765.343106817,-0.421875,-0.23046875,9.69140625,-0.001953125,0.0,-0.001953125,,,,0.9997222726441986,-0.01163710443339469,0.020472944113137395,0.0009021856047036624
1919765.364139517,-0.3828125,-0.23046875,9.6875,-0.001953125,0.0,-0.001953125,,,,0.9997257291109831,-0.011739662767491452,0.020245404705277133,0.0008777584738611515
1919765.396154789,-0.3828125,-0.23046875,9.6875,0.0,0.001953125,0.0,,,,0.9997308313651072,-0.011851022514627451,0.019926349220478232,0.000871028204543627
1919765.442595854,-0.3828125,-0.23046875,9.6875,0.0078125,0.001953125,0.001953125,,,,0.9997405756552267,-0.011806091826632403,0.0194571706128698,0.0009033803622701053
1919765.455965995,-0.421875,-0.23046875,9.69140625,0.0078125,0.001953125,0.001953125,,,,0.9997378513085643,-0.01175993460754625,0.01962375611500661,0.0009169486900784149
1919765.485796939,-0.421875,-0.26953125,9.6875,0.0078125,0.001953125,0.001953125,,,,0.9997310001389709,-0.011887257610896115,0.019893067169426945,0.0009414596210464264
1919765.491770546,-0.421875,-0.26953125,9.6875,0.0,0.0,-0.001953125,,,,0.9997294828950464,-0.011938085711023507,0.01993912248311044,0.0009351655271521746
1919765.515738575,-0.3828125,-0.23046875,9.6875,0.0,0.0,-0.001953125,,,,0.9997354127161744,-0.01189419054473904,0.01966737803475884,0.0009094139563158156
1919765.541412933,-0.3828125,-0.23046875,9.6875,0.0,-0.001953125,0.0,,,,0.9997296208927456,-0.011937169621862084,0.019933809162221663,0.000912328531922507
1919765.547278536,-0.3828125,-0.23046875,9.65234375,0.0,-0.001953125,0.0,,,,0.9997310119349642,-0.011942192514436352,0.019860941273155935,0.0009114961245070983
1919765.577545335,-0.421875,-0.23046875,9.69140625,0.0,-0.001953125,0.0,,,,0.9997247386832899,-0.011934298174022041,0.02017870324683292,0.0009161479125688981
1919765.592864948,-0.421875,-0.23046875,9.69140625,0.001953125,0.001953125,0.0,,,,0.9997210933618267,-0.011915453279799116,0.02036946311262046,0.0009178415300297031
1919765.643867476,-0.34375,-0.23046875,9.6875,0.0,0.0,0.001953125,,,,0.9997328424960633,-0.0119116393213543,0.01978467809553803,0.0009607268474663177
1919765.691881969,-0.34375,-0.23046875,9.6875,-0.001953125,0.0,0.0,,,,0.9997430692080543,-0.011956385069750488,0.019233515873867478,0.0009551406457357115
1919765.704442419,-0.421875,-0.23046875,9.69140625,-0.001953125,0.0,0.0,,,,0.9997401755945262,-0.01196544855823832,0.01937764663195744,0.0009571593561239588
1919765.734344918,-0.421875,-0.26953125,9.6875,-0.001953125,0.0,0.0,,,,0.9997320188084594,-0.012213287906842434,0.01964207214547736,0.0009566449177760365
1919765.742804559,-0.421875,-0.26953125,9.6875,0.001953125,0.001953125,-0.001953125,,,,0.9997297327008694,-0.012266429144760083,0.019725563960649995,0.0009478377072646026
1919765.76514047,-0.3828125,-0.23046875,9.6875,0.001953125,0.001953125,-0.001953125,,,,0.9997326181237695,-0.011988603000941754,0.019750947636515984,0.0009304434098464583
1919765.791583718,-0.3828125,-0.23046875,9.6875,0.0,0.0,-0.001953125,,,,0.999737499112098,-0.011693450536102124,0.019681682573944013,0.0009096453739105899
1919765.795443014,-0.3828125,-0.19140625,9.6875,0.0,0.0,-0.001953125,,,,0.9997379934724346,-0.011649222779459543,0.019682931517505293,0.0009067652518066029
1919765.826573649,-0.3828125,-0.23046875,9.6875,0.0,0.0,-0.001953125,,,,0.9997325486447118,-0.012000880749328337,0.01974975256364811,0.0008702386247898033
1919765.842704618,-0.3828125,-0.23046875,9.6875,-0.001953125,0.0,0.0,,,,0.9997351839566013,-0.011834403833297492,0.019716627451556203,0.0008737546037463153
1919765.856981349,-0.3828125,-0.26953125,9.69140625,-0.001953125,0.0,0.0,,,,0.9997330579230705,-0.01201229099552824,0.019716984310941505,0.000870798775446068
1919765.887129295,-0.3828125,-0.23046875,9.6875,-0.001953125,0.0,0.0,,,,0.9997358447239109,-0.011698663752456501,0.01976385354220819,0.0008787114074672845
1919765.891812811,-0.3828125,-0.23046875,9.6875,0.0,-0.001953125,0.0,,,,0.9997354769610567,-0.01175180591618046,0.019750973448846063,0.0008776166475081155
1919765.943158007,-0.3828125,-0.23046875,9.6875,0.0,0.0,-0.001953125,,,,0.999729935219619,-0.01233785795852124,0.019676624888578863,0.0008150581366429507
1919765.982402992,-0.3828125,-0.23046875,9.65234375,0.0,0.0,-0.001953125,,,,0.9997324039399981,-0.011909921982688476,0.019815525605728808,0.0007869025908294449
1919765.993306523,-0.3828125,-0.23046875,9.65234375,0.00390625,0.001953125,0.0,,,,0.999731759746064,-0.012008182239592994,0.019788839812930527,0.0007835388931222388
1919766.01318664,-0.421875,-0.23046875,9.69140625,0.00390625,0.001953125,0.0,,,,0.9997274542325933,-0.01195637312870222,0.020036100947252267,0.0007855278841359331
1919766.043376764,-0.3828125,-0.23046875,9.6875,-0.001953125,0.001953125,0.0,,,,0.9997340382108472,-0.01192376070496411,0.019724699686582543,0.000782940328015743
1919766.090085838,-0.3828125,-0.23046875,9.6875,0.0,0.0,0.0,,,,0.9997340382108472,-0.01192376070496411,0.019724699686582543,0.000782940328015743
1919766.138766369,-0.3828125,-0.23046875,9.65234375,0.0,0.0,0.0,,,,0.9997340382108472,-0.01192376070496411,0.019724699686582543,0.000782940328015743
1919766.166682594,-0.3828125,-0.23046875,9.6875,0.0,0.0,0.0,,,,0.9997340382108472,-0.01192376070496411,0.019724699686582543,0.000782940328015743
1919766.32423961,-0.421875,-0.23046875,9.69140625,0.0,0.0,0.0,,,,0.9997340382108472,-0.01192376070496411,0.019724699686582543,0.000782940328015743
1919766.354058778,-0.3828125,-0.23046875,9.6875,0.0,0.0,0.0,,,,0.9997340382108472,-0.01192376070496411,0.019724699686582543,0.000782940328015743
1919766.47728518,-0.421875,-0.23046875,9.6484375,0.0,0.0,0.0,,,,0.9997340382108472,-0.01192376070496411,0.019724699686582543,0.000782940328015743
1919766.509896857,-0.3828125,-0.23046875,9.6875,0.0,0.0,0.0,,,,0.9997340382108472,-0.01192376070496411,0.019724699686582543,0.000782940328015743
1919766.542693212,-0.3828125,-0.23046875,9.65234375,0.0,0.0,0.0,,,,0.9997340382108472,-0.01192376070496411,0.019724699686582543,0.000782940328015743
1919766.603416063,-0.421875,-0.23046875,9.69140625,0.0,0.0,0.0,,,,0.9997340382108472,-0.01192376070496411,0.019724699686582543,0.000782940328015743
